id	block	stim_id	accuracy	RT	stim	trials_in_block	trials_in_exp	mid	dependency	antecedent	trial	cond	dependency2
1	1	1	1	2695	12.jpg	1	1	0	none	none	1_1	none/none	none
1	1	2	1	2275	11.jpg	2	2	0	none	non-adjacent	1_1	none/non-adjacent	NA
1	1	3	1	2522	8.jpg	3	3	1	none	none	1_1	none/none	none
1	1	4	1	2540	7.jpg	4	4	0	none	none	1_1	none/none	none
1	1	5	1	1827	4.jpg	5	5	0	non-adjacent	none	1_1	non-adjacent/none	dependency
1	1	7	1	1866	10.jpg	7	7	0	none	adjacent	1_1	none/adjacent	NA
1	1	8	1	1491	3.jpg	8	8	NA	adjacent	none	1_1	adjacent/none	dependency
1	1	9	1	1418	2.jpg	9	9	0	none	none	1_1	none/none	none
1	1	2	1	4802	11.jpg	11	11	0	none	non-adjacent	1_2	none/non-adjacent	NA
1	1	3	1	2587	2.jpg	12	12	1	none	none	1_2	none/none	none
1	1	4	1	3443	7.jpg	13	13	0	none	none	1_2	none/none	none
1	1	5	1	1523	8.jpg	14	14	0	non-adjacent	none	1_2	non-adjacent/none	dependency
1	1	6	1	2019	4.jpg	15	15	0	none	none	1_2	none/none	none
1	1	7	1	1139	10.jpg	16	16	0	none	adjacent	1_2	none/adjacent	NA
1	1	8	1	1275	3.jpg	17	17	NA	adjacent	none	1_2	adjacent/none	dependency
1	1	9	1	2394	12.jpg	18	18	0	none	none	1_2	none/none	none
1	1	1	0	1128	4.jpg	19	19	0	none	none	1_3	none/none	none
1	1	2	1	1524	11.jpg	20	20	0	none	non-adjacent	1_3	none/non-adjacent	NA
1	1	3	1	2274	12.jpg	21	21	1	none	none	1_3	none/none	none
1	1	4	0	1772	7.jpg	22	22	0	none	none	1_3	none/none	none
1	1	5	1	1627	2.jpg	23	23	0	non-adjacent	none	1_3	non-adjacent/none	dependency
1	1	6	1	1331	8.jpg	24	24	0	none	none	1_3	none/none	none
1	1	7	1	1186	10.jpg	25	25	0	none	adjacent	1_3	none/adjacent	NA
1	1	8	0	1372	3.jpg	26	26	NA	adjacent	none	1_3	adjacent/none	dependency
1	1	1	1	1213	2.jpg	28	28	0	none	none	1_4	none/none	none
1	1	2	1	3306	11.jpg	29	29	0	none	non-adjacent	1_4	none/non-adjacent	NA
1	1	3	1	1754	4.jpg	30	30	1	none	none	1_4	none/none	none
1	1	4	1	2689	7.jpg	31	31	0	none	none	1_4	none/none	none
1	1	6	1	1641	12.jpg	33	33	0	none	none	1_4	none/none	none
1	1	7	1	2914	10.jpg	34	34	0	none	adjacent	1_4	none/adjacent	NA
1	1	8	1	1484	3.jpg	35	35	NA	adjacent	none	1_4	adjacent/none	dependency
1	1	9	1	2114	8.jpg	36	36	0	none	none	1_4	none/none	none
1	1	1	1	1194	8.jpg	37	37	0	none	none	1_5	none/none	none
1	1	2	1	1083	11.jpg	38	38	0	none	non-adjacent	1_5	none/non-adjacent	NA
1	1	4	1	3804	7.jpg	40	40	0	none	none	1_5	none/none	none
1	1	5	1	3883	12.jpg	41	41	0	non-adjacent	none	1_5	non-adjacent/none	dependency
1	1	6	1	1299	2.jpg	42	42	0	none	none	1_5	none/none	none
1	1	7	0	1394	10.jpg	43	43	0	none	adjacent	1_5	none/adjacent	NA
1	1	8	1	2067	3.jpg	44	44	NA	adjacent	none	1_5	adjacent/none	dependency
1	1	9	1	1284	4.jpg	45	45	0	none	none	1_5	none/none	none
1	2	1	1	1418	8.jpg	1	46	0	none	none	2_1	none/none	none
1	2	2	1	2338	4.jpg	2	47	0	none	none	2_1	none/none	none
1	2	3	1	1875	10.jpg	3	48	0	none	adjacent	2_1	none/adjacent	NA
1	2	4	1	1452	3.jpg	4	49	NA	adjacent	none	2_1	adjacent/none	dependency
1	2	6	1	3355	11.jpg	6	51	0	none	non-adjacent	2_1	none/non-adjacent	NA
1	2	7	1	987	12.jpg	7	52	1	none	none	2_1	none/none	none
1	2	8	1	2044	7.jpg	8	53	0	none	none	2_1	none/none	none
1	2	9	1	1307	2.jpg	9	54	0	non-adjacent	none	2_1	non-adjacent/none	dependency
1	2	2	1	2338	12.jpg	11	56	0	none	none	2_2	none/none	none
1	2	3	1	1139	10.jpg	12	57	0	none	adjacent	2_2	none/adjacent	NA
1	2	4	1	1083	3.jpg	13	58	NA	adjacent	none	2_2	adjacent/none	dependency
1	2	5	1	1164	2.jpg	14	59	0	none	none	2_2	none/none	none
1	2	6	1	1842	11.jpg	15	60	0	none	non-adjacent	2_2	none/non-adjacent	NA
1	2	7	1	1204	8.jpg	16	61	1	none	none	2_2	none/none	none
1	2	8	1	1363	7.jpg	17	62	0	none	none	2_2	none/none	none
1	2	9	1	1402	4.jpg	18	63	0	non-adjacent	none	2_2	non-adjacent/none	dependency
1	2	1	1	1011	2.jpg	19	64	0	none	none	2_3	none/none	none
1	2	2	1	1139	8.jpg	20	65	0	none	none	2_3	none/none	none
1	2	3	1	883	10.jpg	21	66	0	none	adjacent	2_3	none/adjacent	NA
1	2	4	1	1420	3.jpg	22	67	NA	adjacent	none	2_3	adjacent/none	dependency
1	2	5	1	1179	4.jpg	23	68	0	none	none	2_3	none/none	none
1	2	6	1	947	11.jpg	24	69	0	none	non-adjacent	2_3	none/non-adjacent	NA
1	2	8	1	2860	7.jpg	26	71	0	none	none	2_3	none/none	none
1	2	9	1	1731	12.jpg	27	72	0	non-adjacent	none	2_3	non-adjacent/none	dependency
1	2	1	1	992	4.jpg	28	73	0	none	none	2_4	none/none	none
1	2	3	1	1492	10.jpg	30	75	0	none	adjacent	2_4	none/adjacent	NA
1	2	4	1	1490	3.jpg	31	76	NA	adjacent	none	2_4	adjacent/none	dependency
1	2	5	0	1428	12.jpg	32	77	0	none	none	2_4	none/none	none
1	2	6	1	1803	11.jpg	33	78	0	none	non-adjacent	2_4	none/non-adjacent	NA
1	2	7	1	1178	2.jpg	34	79	1	none	none	2_4	none/none	none
1	2	8	1	1219	7.jpg	35	80	0	none	none	2_4	none/none	none
1	2	9	1	1281	8.jpg	36	81	0	non-adjacent	none	2_4	non-adjacent/none	dependency
1	2	1	1	1359	12.jpg	37	82	0	none	none	2_5	none/none	none
1	2	2	1	2082	2.jpg	38	83	0	none	none	2_5	none/none	none
1	2	3	1	833	10.jpg	39	84	0	none	adjacent	2_5	none/adjacent	NA
1	2	4	0	1459	3.jpg	40	85	NA	adjacent	none	2_5	adjacent/none	dependency
1	2	5	1	1257	8.jpg	41	86	0	none	none	2_5	none/none	none
1	2	6	1	1050	11.jpg	42	87	0	none	non-adjacent	2_5	none/non-adjacent	NA
1	2	7	1	1098	4.jpg	43	88	1	none	none	2_5	none/none	none
1	2	8	1	1082	7.jpg	44	89	0	none	none	2_5	none/none	none
1	3	1	1	1145	2.jpg	1	91	0	none	none	3_1	none/none	none
1	3	2	1	1186	11.jpg	2	92	0	none	non-adjacent	3_1	none/non-adjacent	NA
1	3	3	1	1089	8.jpg	3	93	1	none	none	3_1	none/none	none
1	3	4	1	1114	7.jpg	4	94	0	none	none	3_1	none/none	none
1	3	5	1	1210	4.jpg	5	95	0	non-adjacent	none	3_1	non-adjacent/none	dependency
1	3	7	1	1603	10.jpg	7	97	0	none	adjacent	3_1	none/adjacent	NA
1	3	8	1	1161	3.jpg	8	98	NA	adjacent	none	3_1	adjacent/none	dependency
1	3	9	1	994	12.jpg	9	99	0	none	none	3_1	none/none	none
1	3	1	1	1426	12.jpg	10	100	0	none	none	3_2	none/none	none
1	3	2	1	995	11.jpg	11	101	0	none	non-adjacent	3_2	none/non-adjacent	NA
1	3	3	1	1490	2.jpg	12	102	1	none	none	3_2	none/none	none
1	3	4	1	2474	7.jpg	13	103	0	none	none	3_2	none/none	none
1	3	5	1	1682	8.jpg	14	104	0	non-adjacent	none	3_2	non-adjacent/none	dependency
1	3	6	1	1524	4.jpg	15	105	0	none	none	3_2	none/none	none
1	3	7	1	1914	10.jpg	16	106	0	none	adjacent	3_2	none/adjacent	NA
1	3	8	1	1427	3.jpg	17	107	NA	adjacent	none	3_2	adjacent/none	dependency
1	3	1	1	4084	8.jpg	19	109	0	none	none	3_3	none/none	none
1	3	2	1	1099	11.jpg	20	110	0	none	non-adjacent	3_3	none/non-adjacent	NA
1	3	3	1	1115	4.jpg	21	111	1	none	none	3_3	none/none	none
1	3	4	1	1444	7.jpg	22	112	0	none	none	3_3	none/none	none
1	3	6	1	946	12.jpg	24	114	0	none	none	3_3	none/none	none
1	3	7	1	2194	10.jpg	25	115	0	none	adjacent	3_3	none/adjacent	NA
1	3	8	1	1698	3.jpg	26	116	NA	adjacent	none	3_3	adjacent/none	dependency
1	3	9	1	1154	2.jpg	27	117	0	none	none	3_3	none/none	none
1	3	2	1	1259	11.jpg	29	119	0	none	non-adjacent	3_4	none/non-adjacent	NA
1	3	3	1	1090	12.jpg	30	120	1	none	none	3_4	none/none	none
1	3	4	1	1794	7.jpg	31	121	0	none	none	3_4	none/none	none
1	3	5	1	1226	2.jpg	32	122	0	non-adjacent	none	3_4	non-adjacent/none	dependency
1	3	6	1	1018	8.jpg	33	123	0	none	none	3_4	none/none	none
1	3	7	1	850	10.jpg	34	124	0	none	adjacent	3_4	none/adjacent	NA
1	3	8	1	1393	3.jpg	35	125	NA	adjacent	none	3_4	adjacent/none	dependency
1	3	9	1	1603	4.jpg	36	126	0	none	none	3_4	none/none	none
1	3	1	1	949	4.jpg	37	127	0	none	none	3_5	none/none	none
1	3	2	1	995	11.jpg	38	128	0	none	non-adjacent	3_5	none/non-adjacent	NA
1	3	4	1	1338	7.jpg	40	130	0	none	none	3_5	none/none	none
1	3	5	1	1123	12.jpg	41	131	0	non-adjacent	none	3_5	non-adjacent/none	dependency
1	3	6	1	1228	2.jpg	42	132	0	none	none	3_5	none/none	none
1	3	7	1	995	10.jpg	43	133	0	none	adjacent	3_5	none/adjacent	NA
1	3	8	1	1083	3.jpg	44	134	NA	adjacent	none	3_5	adjacent/none	dependency
1	3	9	1	1331	8.jpg	45	135	0	none	none	3_5	none/none	none
1	4	1	1	1238	4.jpg	1	136	0	none	none	4_1	none/none	none
1	4	2	0	1065	8.jpg	2	137	0	none	none	4_1	none/none	none
1	4	3	1	2355	10.jpg	3	138	0	none	adjacent	4_1	none/adjacent	NA
1	4	4	1	1442	3.jpg	4	139	NA	adjacent	none	4_1	adjacent/none	dependency
1	4	5	1	1586	12.jpg	5	140	0	none	none	4_1	none/none	none
1	4	6	1	1897	11.jpg	6	141	0	none	non-adjacent	4_1	none/non-adjacent	NA
1	4	7	1	1187	2.jpg	7	142	1	none	none	4_1	none/none	none
1	4	8	1	1266	7.jpg	8	143	0	none	none	4_1	none/none	none
1	4	2	1	1275	4.jpg	11	146	0	none	none	4_2	none/none	none
1	4	3	1	1625	10.jpg	12	147	0	none	adjacent	4_2	none/adjacent	NA
1	4	4	1	2058	3.jpg	13	148	NA	adjacent	none	4_2	adjacent/none	dependency
1	4	5	1	1347	2.jpg	14	149	0	none	none	4_2	none/none	none
1	4	6	1	1003	11.jpg	15	150	0	none	non-adjacent	4_2	none/non-adjacent	NA
1	4	7	1	1330	8.jpg	16	151	1	none	none	4_2	none/none	none
1	4	8	1	1460	7.jpg	17	152	0	none	none	4_2	none/none	none
1	4	9	1	1203	12.jpg	18	153	0	non-adjacent	none	4_2	non-adjacent/none	dependency
1	4	1	1	1502	8.jpg	19	154	0	none	none	4_3	none/none	none
1	4	2	1	1331	2.jpg	20	155	0	none	none	4_3	none/none	none
1	4	3	1	1115	10.jpg	21	156	0	none	adjacent	4_3	none/adjacent	NA
1	4	4	1	1195	3.jpg	22	157	NA	adjacent	none	4_3	adjacent/none	dependency
1	4	6	1	1396	11.jpg	24	159	0	none	non-adjacent	4_3	none/non-adjacent	NA
1	4	7	1	1219	12.jpg	25	160	1	none	none	4_3	none/none	none
1	4	8	1	1066	7.jpg	26	161	0	none	none	4_3	none/none	none
1	4	9	1	1436	4.jpg	27	162	0	non-adjacent	none	4_3	non-adjacent/none	dependency
1	4	1	1	1491	12.jpg	28	163	0	none	none	4_4	none/none	none
1	4	3	1	1003	10.jpg	30	165	0	none	adjacent	4_4	none/adjacent	NA
1	4	4	1	988	3.jpg	31	166	NA	adjacent	none	4_4	adjacent/none	dependency
1	4	5	1	2154	8.jpg	32	167	0	none	none	4_4	none/none	none
1	4	6	1	1043	11.jpg	33	168	0	none	non-adjacent	4_4	none/non-adjacent	NA
1	4	7	1	1091	4.jpg	34	169	1	none	none	4_4	none/none	none
1	4	8	1	3204	7.jpg	35	170	0	none	none	4_4	none/none	none
1	4	9	1	979	2.jpg	36	171	0	non-adjacent	none	4_4	non-adjacent/none	dependency
1	4	1	1	777	2.jpg	37	172	0	none	none	4_5	none/none	none
1	4	2	1	1107	12.jpg	38	173	0	none	none	4_5	none/none	none
1	4	3	0	995	10.jpg	39	174	0	none	adjacent	4_5	none/adjacent	NA
1	4	4	1	1676	3.jpg	40	175	NA	adjacent	none	4_5	adjacent/none	dependency
1	4	5	1	1450	4.jpg	41	176	0	none	none	4_5	none/none	none
1	4	6	1	1076	11.jpg	42	177	0	none	non-adjacent	4_5	none/non-adjacent	NA
1	4	8	1	987	7.jpg	44	179	0	none	none	4_5	none/none	none
1	4	9	1	1444	8.jpg	45	180	0	non-adjacent	none	4_5	non-adjacent/none	dependency
1	5	2	1	1203	11.jpg	2	182	0	none	non-adjacent	5_1	none/non-adjacent	NA
1	5	3	1	1035	4.jpg	3	183	1	none	none	5_1	none/none	none
1	5	4	1	1523	7.jpg	4	184	0	none	none	5_1	none/none	none
1	5	5	1	1275	2.jpg	5	185	0	non-adjacent	none	5_1	non-adjacent/none	dependency
1	5	6	1	1338	8.jpg	6	186	0	none	none	5_1	none/none	none
1	5	7	0	1867	10.jpg	7	187	0	none	adjacent	5_1	none/adjacent	NA
1	5	8	1	1259	3.jpg	8	188	NA	adjacent	none	5_1	adjacent/none	dependency
1	5	9	1	1380	12.jpg	9	189	0	none	none	5_1	none/none	none
1	5	1	1	1073	2.jpg	10	190	0	none	none	5_2	none/none	none
1	5	2	1	947	11.jpg	11	191	0	none	non-adjacent	5_2	none/non-adjacent	NA
1	5	3	1	1043	12.jpg	12	192	1	none	none	5_2	none/none	none
1	5	4	1	2291	7.jpg	13	193	0	none	none	5_2	none/none	none
1	5	5	1	1083	4.jpg	14	194	0	non-adjacent	none	5_2	non-adjacent/none	dependency
1	5	7	0	1099	10.jpg	16	196	0	none	adjacent	5_2	none/adjacent	NA
1	5	8	1	1923	3.jpg	17	197	NA	adjacent	none	5_2	adjacent/none	dependency
1	5	9	0	1372	8.jpg	18	198	0	none	none	5_2	none/none	none
1	5	1	1	1519	12.jpg	19	199	0	none	none	5_3	none/none	none
1	5	2	1	1042	11.jpg	20	200	0	none	non-adjacent	5_3	none/non-adjacent	NA
1	5	4	1	1178	7.jpg	22	202	0	none	none	5_3	none/none	none
1	5	5	1	1898	8.jpg	23	203	0	non-adjacent	none	5_3	non-adjacent/none	dependency
1	5	6	1	1227	4.jpg	24	204	0	none	none	5_3	none/none	none
1	5	7	1	1034	10.jpg	25	205	0	none	adjacent	5_3	none/adjacent	NA
1	5	8	1	1258	3.jpg	26	206	NA	adjacent	none	5_3	adjacent/none	dependency
1	5	9	1	1202	2.jpg	27	207	0	none	none	5_3	none/none	none
1	5	1	1	1039	4.jpg	28	208	0	none	none	5_4	none/none	none
1	5	2	1	1129	11.jpg	29	209	0	none	non-adjacent	5_4	none/non-adjacent	NA
1	5	3	1	1154	8.jpg	30	210	1	none	none	5_4	none/none	none
1	5	4	1	978	7.jpg	31	211	0	none	none	5_4	none/none	none
1	5	5	1	1268	12.jpg	32	212	0	non-adjacent	none	5_4	non-adjacent/none	dependency
1	5	6	1	1034	2.jpg	33	213	0	none	none	5_4	none/none	none
1	5	7	1	1386	10.jpg	34	214	0	none	adjacent	5_4	none/adjacent	NA
1	5	8	1	1193	3.jpg	35	215	NA	adjacent	none	5_4	adjacent/none	dependency
1	5	1	1	1010	8.jpg	37	217	0	none	none	5_5	none/none	none
1	5	2	1	1298	11.jpg	38	218	0	none	non-adjacent	5_5	none/non-adjacent	NA
1	5	3	1	1219	2.jpg	39	219	1	none	none	5_5	none/none	none
1	5	4	1	1747	7.jpg	40	220	0	none	none	5_5	none/none	none
1	5	6	1	1562	12.jpg	42	222	0	none	none	5_5	none/none	none
1	5	7	1	1043	10.jpg	43	223	0	none	adjacent	5_5	none/adjacent	NA
1	5	8	1	1019	3.jpg	44	224	NA	adjacent	none	5_5	adjacent/none	dependency
1	5	9	1	1451	4.jpg	45	225	0	none	none	5_5	none/none	none
1	6	1	1	1097	4.jpg	1	226	0	none	none	6_1	none/none	none
1	6	2	1	1274	2.jpg	2	227	0	none	none	6_1	none/none	none
1	6	3	1	1436	10.jpg	3	228	0	none	adjacent	6_1	none/adjacent	NA
1	6	4	1	1891	3.jpg	4	229	NA	adjacent	none	6_1	adjacent/none	dependency
1	6	6	1	1084	11.jpg	6	231	0	none	non-adjacent	6_1	none/non-adjacent	NA
1	6	7	1	1099	12.jpg	7	232	1	none	none	6_1	none/none	none
1	6	8	0	634	7.jpg	8	233	0	none	none	6_1	none/none	none
1	6	9	1	1588	8.jpg	9	234	0	non-adjacent	none	6_1	non-adjacent/none	dependency
1	6	1	1	1283	2.jpg	10	235	0	none	none	6_2	none/none	none
1	6	3	1	1907	10.jpg	12	237	0	none	adjacent	6_2	none/adjacent	NA
1	6	4	1	1410	3.jpg	13	238	NA	adjacent	none	6_2	adjacent/none	dependency
1	6	5	1	1163	8.jpg	14	239	0	none	none	6_2	none/none	none
1	6	6	1	1923	11.jpg	15	240	0	none	non-adjacent	6_2	none/non-adjacent	NA
1	6	7	1	2308	4.jpg	16	241	1	none	none	6_2	none/none	none
1	6	8	1	939	7.jpg	17	242	0	none	none	6_2	none/none	none
1	6	9	1	1979	12.jpg	18	243	0	non-adjacent	none	6_2	non-adjacent/none	dependency
1	6	1	1	1703	12.jpg	19	244	0	none	none	6_3	none/none	none
1	6	2	1	1283	4.jpg	20	245	0	none	none	6_3	none/none	none
1	6	3	1	899	10.jpg	21	246	0	none	adjacent	6_3	none/adjacent	NA
1	6	4	1	1043	3.jpg	22	247	NA	adjacent	none	6_3	adjacent/none	dependency
1	6	5	1	1099	2.jpg	23	248	0	none	none	6_3	none/none	none
1	6	6	1	1436	11.jpg	24	249	0	none	non-adjacent	6_3	none/non-adjacent	NA
1	6	7	1	2274	8.jpg	25	250	1	none	none	6_3	none/none	none
1	6	8	1	1139	7.jpg	26	251	0	none	none	6_3	none/none	none
1	6	2	1	1364	8.jpg	29	254	0	none	none	6_4	none/none	none
1	6	3	1	2698	10.jpg	30	255	0	none	adjacent	6_4	none/adjacent	NA
1	6	4	1	4208	3.jpg	31	256	NA	adjacent	none	6_4	adjacent/none	dependency
1	6	5	1	2532	12.jpg	32	257	0	none	none	6_4	none/none	none
1	6	6	1	1394	11.jpg	33	258	0	none	non-adjacent	6_4	none/non-adjacent	NA
1	6	7	1	1291	2.jpg	34	259	1	none	none	6_4	none/none	none
1	6	8	0	3051	7.jpg	35	260	0	none	none	6_4	none/none	none
1	6	9	1	1931	4.jpg	36	261	0	non-adjacent	none	6_4	non-adjacent/none	dependency
1	6	1	1	1082	8.jpg	37	262	0	none	none	6_5	none/none	none
1	6	2	1	1179	12.jpg	38	263	0	none	none	6_5	none/none	none
1	6	3	1	2075	10.jpg	39	264	0	none	adjacent	6_5	none/adjacent	NA
1	6	4	1	2338	3.jpg	40	265	NA	adjacent	none	6_5	adjacent/none	dependency
1	6	5	1	1508	4.jpg	41	266	0	none	none	6_5	none/none	none
1	6	6	1	2163	11.jpg	42	267	0	none	non-adjacent	6_5	none/non-adjacent	NA
1	6	8	1	2531	7.jpg	44	269	0	none	none	6_5	none/none	none
1	6	9	1	1139	2.jpg	45	270	0	non-adjacent	none	6_5	non-adjacent/none	dependency
1	7	1	1	1031	4.jpg	1	271	0	none	none	7_1	none/none	none
1	7	3	1	1594	2.jpg	3	273	0	none	none	7_1	none/none	none
1	7	4	1	2228	12.jpg	4	274	0	none	none	7_1	none/none	none
1	7	5	1	2730	8.jpg	5	275	0	none	none	7_1	none/none	none
1	7	6	1	1372	3.jpg	6	276	0	none	none	7_1	none/none	none
1	7	7	1	2955	7.jpg	7	277	0	none	none	7_1	none/none	none
1	7	8	1	4003	11.jpg	8	278	0	none	non-adjacent	7_1	none/non-adjacent	NA
1	7	9	1	2283	10.jpg	9	279	1	none	adjacent	7_1	none/adjacent	NA
1	7	1	1	1775	10.jpg	10	280	NA	adjacent	adjacent	7_2	adjacent/adjacent	dependency
1	7	2	1	1123	8.jpg	11	281	NA	both	none	7_2	both/none	dependency
1	7	3	1	891	3.jpg	12	282	0	none	none	7_2	none/none	none
1	7	4	1	1267	7.jpg	13	283	0	none	none	7_2	none/none	none
1	7	5	1	986	11.jpg	14	284	0	none	non-adjacent	7_2	none/non-adjacent	NA
1	7	7	1	1042	4.jpg	16	286	0	none	none	7_2	none/none	none
1	7	8	1	1329	2.jpg	17	287	0	non-adjacent	none	7_2	non-adjacent/none	dependency
1	7	9	1	986	12.jpg	18	288	0	none	none	7_2	none/none	none
1	7	1	1	830	2.jpg	19	289	0	none	none	7_3	none/none	none
1	7	2	1	1057	7.jpg	20	290	0	none	none	7_3	none/none	none
1	7	3	1	1226	12.jpg	21	291	0	none	none	7_3	none/none	none
1	7	4	1	1146	4.jpg	22	292	0	none	none	7_3	none/none	none
1	7	5	1	1203	3.jpg	23	293	0	none	none	7_3	none/none	none
1	7	6	1	1010	8.jpg	24	294	0	none	none	7_3	none/none	none
1	7	7	1	1131	11.jpg	25	295	0	none	non-adjacent	7_3	none/non-adjacent	NA
1	7	8	1	1433	10.jpg	26	296	1	none	adjacent	7_3	none/adjacent	NA
1	7	1	1	1043	8.jpg	28	298	0	non-adjacent	none	7_4	non-adjacent/none	dependency
1	7	2	1	1026	4.jpg	29	299	0	none	none	7_4	none/none	none
1	7	3	1	1314	10.jpg	30	300	0	none	adjacent	7_4	none/adjacent	NA
1	7	5	1	1002	2.jpg	32	302	0	none	none	7_4	none/none	none
1	7	6	1	1084	12.jpg	33	303	0	none	none	7_4	none/none	none
1	7	7	1	1291	3.jpg	34	304	0	none	none	7_4	none/none	none
1	7	8	1	1123	7.jpg	35	305	0	none	none	7_4	none/none	none
1	7	9	1	2426	11.jpg	36	306	0	none	non-adjacent	7_4	none/non-adjacent	NA
1	7	1	1	1201	7.jpg	37	307	1	none	none	7_5	none/none	none
1	7	2	1	1866	12.jpg	38	308	0	none	none	7_5	none/none	none
1	7	3	1	1156	8.jpg	39	309	0	non-adjacent	none	7_5	non-adjacent/none	dependency
1	7	4	1	1882	2.jpg	40	310	0	none	none	7_5	none/none	none
1	7	5	1	2652	10.jpg	41	311	0	none	adjacent	7_5	none/adjacent	NA
1	7	6	1	1771	11.jpg	42	312	NA	adjacent	non-adjacent	7_5	adjacent/non-adjacent	dependency
1	7	8	1	1187	4.jpg	44	314	0	none	none	7_5	none/none	none
1	7	9	0	5050	3.jpg	45	315	0	non-adjacent	none	7_5	non-adjacent/none	dependency
2	1	1	1	7084	8.jpg	1	1	0	none	none	1_1	none/none	none
2	1	2	1	1097	4.jpg	2	2	0	none	none	1_1	none/none	none
2	1	3	1	945	10.jpg	3	3	0	none	adjacent	1_1	none/adjacent	NA
2	1	4	1	2103	3.jpg	4	4	NA	adjacent	none	1_1	adjacent/none	dependency
2	1	6	1	1673	11.jpg	6	6	0	none	non-adjacent	1_1	none/non-adjacent	NA
2	1	7	1	2948	12.jpg	7	7	1	none	none	1_1	none/none	none
2	1	8	1	1032	7.jpg	8	8	0	none	none	1_1	none/none	none
2	1	9	1	993	2.jpg	9	9	0	non-adjacent	none	1_1	non-adjacent/none	dependency
2	1	1	1	2077	12.jpg	10	10	0	none	none	1_2	none/none	none
2	1	2	1	914	2.jpg	11	11	0	none	none	1_2	none/none	none
2	1	3	1	1282	10.jpg	12	12	0	none	adjacent	1_2	none/adjacent	NA
2	1	4	1	1927	3.jpg	13	13	NA	adjacent	none	1_2	adjacent/none	dependency
2	1	5	1	980	8.jpg	14	14	0	none	none	1_2	none/none	none
2	1	6	1	1253	11.jpg	15	15	0	none	non-adjacent	1_2	none/non-adjacent	NA
2	1	7	1	1217	4.jpg	16	16	1	none	none	1_2	none/none	none
2	1	8	1	1058	7.jpg	17	17	0	none	none	1_2	none/none	none
2	1	2	1	1049	12.jpg	20	20	0	none	none	1_3	none/none	none
2	1	3	1	930	10.jpg	21	21	0	none	adjacent	1_3	none/adjacent	NA
2	1	4	1	1186	3.jpg	22	22	NA	adjacent	none	1_3	adjacent/none	dependency
2	1	5	1	945	2.jpg	23	23	0	none	none	1_3	none/none	none
2	1	6	1	1107	11.jpg	24	24	0	none	non-adjacent	1_3	none/non-adjacent	NA
2	1	7	1	945	8.jpg	25	25	1	none	none	1_3	none/none	none
2	1	8	1	841	7.jpg	26	26	0	none	none	1_3	none/none	none
2	1	9	1	953	4.jpg	27	27	0	non-adjacent	none	1_3	non-adjacent/none	dependency
2	1	1	1	764	2.jpg	28	28	0	none	none	1_4	none/none	none
2	1	2	1	1393	8.jpg	29	29	0	none	none	1_4	none/none	none
2	1	3	1	897	10.jpg	30	30	0	none	adjacent	1_4	none/adjacent	NA
2	1	4	1	851	3.jpg	31	31	NA	adjacent	none	1_4	adjacent/none	dependency
2	1	5	0	1241	4.jpg	32	32	0	none	none	1_4	none/none	none
2	1	6	1	1882	11.jpg	33	33	0	none	non-adjacent	1_4	none/non-adjacent	NA
2	1	8	1	935	7.jpg	35	35	0	none	none	1_4	none/none	none
2	1	9	1	1465	12.jpg	36	36	0	non-adjacent	none	1_4	non-adjacent/none	dependency
2	1	1	1	1460	4.jpg	37	37	0	none	none	1_5	none/none	none
2	1	3	1	858	10.jpg	39	39	0	none	adjacent	1_5	none/adjacent	NA
2	1	4	1	1465	3.jpg	40	40	NA	adjacent	none	1_5	adjacent/none	dependency
2	1	5	1	1161	12.jpg	41	41	0	none	none	1_5	none/none	none
2	1	6	1	1091	11.jpg	42	42	0	none	non-adjacent	1_5	none/non-adjacent	NA
2	1	7	1	802	2.jpg	43	43	1	none	none	1_5	none/none	none
2	1	8	1	936	7.jpg	44	44	0	none	none	1_5	none/none	none
2	1	9	1	929	8.jpg	45	45	0	non-adjacent	none	1_5	non-adjacent/none	dependency
2	2	1	1	804	8.jpg	1	46	0	none	none	2_1	none/none	none
2	2	2	1	970	11.jpg	2	47	0	none	non-adjacent	2_1	none/non-adjacent	NA
2	2	4	1	826	7.jpg	4	49	0	none	none	2_1	none/none	none
2	2	5	1	986	12.jpg	5	50	0	non-adjacent	none	2_1	non-adjacent/none	dependency
2	2	6	1	777	2.jpg	6	51	0	none	none	2_1	none/none	none
2	2	7	1	1243	10.jpg	7	52	0	none	adjacent	2_1	none/adjacent	NA
2	2	8	1	994	3.jpg	8	53	NA	adjacent	none	2_1	adjacent/none	dependency
2	2	9	1	928	4.jpg	9	54	0	none	none	2_1	none/none	none
2	2	1	1	884	2.jpg	10	55	0	none	none	2_2	none/none	none
2	2	2	1	3659	11.jpg	11	56	0	none	non-adjacent	2_2	none/non-adjacent	NA
2	2	3	1	890	4.jpg	12	57	1	none	none	2_2	none/none	none
2	2	4	1	842	7.jpg	13	58	0	none	none	2_2	none/none	none
2	2	6	1	857	12.jpg	15	60	0	none	none	2_2	none/none	none
2	2	7	1	1233	10.jpg	16	61	0	none	adjacent	2_2	none/adjacent	NA
2	2	8	1	987	3.jpg	17	62	NA	adjacent	none	2_2	adjacent/none	dependency
2	2	9	1	1998	8.jpg	18	63	0	none	none	2_2	none/none	none
2	2	1	1	1322	4.jpg	19	64	0	none	none	2_3	none/none	none
2	2	2	1	1609	11.jpg	20	65	0	none	non-adjacent	2_3	none/non-adjacent	NA
2	2	3	1	721	12.jpg	21	66	1	none	none	2_3	none/none	none
2	2	4	1	826	7.jpg	22	67	0	none	none	2_3	none/none	none
2	2	5	1	746	2.jpg	23	68	0	non-adjacent	none	2_3	non-adjacent/none	dependency
2	2	6	1	873	8.jpg	24	69	0	none	none	2_3	none/none	none
2	2	7	1	796	10.jpg	25	70	0	none	adjacent	2_3	none/adjacent	NA
2	2	8	1	1476	3.jpg	26	71	NA	adjacent	none	2_3	adjacent/none	dependency
2	2	2	1	834	11.jpg	29	74	0	none	non-adjacent	2_4	none/non-adjacent	NA
2	2	3	1	1017	2.jpg	30	75	1	none	none	2_4	none/none	none
2	2	4	1	939	7.jpg	31	76	0	none	none	2_4	none/none	none
2	2	5	1	850	8.jpg	32	77	0	non-adjacent	none	2_4	non-adjacent/none	dependency
2	2	6	1	2262	4.jpg	33	78	0	none	none	2_4	none/none	none
2	2	7	1	805	10.jpg	34	79	0	none	adjacent	2_4	none/adjacent	NA
2	2	8	1	1118	3.jpg	35	80	NA	adjacent	none	2_4	adjacent/none	dependency
2	2	9	1	1160	12.jpg	36	81	0	none	none	2_4	none/none	none
2	2	1	1	1290	12.jpg	37	82	0	none	none	2_5	none/none	none
2	2	2	1	1041	11.jpg	38	83	0	none	non-adjacent	2_5	none/non-adjacent	NA
2	2	3	1	1177	8.jpg	39	84	1	none	none	2_5	none/none	none
2	2	4	1	1529	7.jpg	40	85	0	none	none	2_5	none/none	none
2	2	5	1	914	4.jpg	41	86	0	non-adjacent	none	2_5	non-adjacent/none	dependency
2	2	7	1	1528	10.jpg	43	88	0	none	adjacent	2_5	none/adjacent	NA
2	2	8	1	1209	3.jpg	44	89	NA	adjacent	none	2_5	adjacent/none	dependency
2	2	9	1	825	2.jpg	45	90	0	none	none	2_5	none/none	none
2	3	1	1	867	2.jpg	1	91	0	none	none	3_1	none/none	none
2	3	2	1	849	12.jpg	2	92	0	none	none	3_1	none/none	none
2	3	3	1	1449	10.jpg	3	93	0	none	adjacent	3_1	none/adjacent	NA
2	3	4	1	1202	3.jpg	4	94	NA	adjacent	none	3_1	adjacent/none	dependency
2	3	5	1	890	4.jpg	5	95	0	none	none	3_1	none/none	none
2	3	6	1	989	11.jpg	6	96	0	none	non-adjacent	3_1	none/non-adjacent	NA
2	3	8	1	794	7.jpg	8	98	0	none	none	3_1	none/none	none
2	3	9	1	913	8.jpg	9	99	0	non-adjacent	none	3_1	non-adjacent/none	dependency
2	3	1	1	951	12.jpg	10	100	0	none	none	3_2	none/none	none
2	3	3	1	1058	10.jpg	12	102	0	none	adjacent	3_2	none/adjacent	NA
2	3	4	1	1233	3.jpg	13	103	NA	adjacent	none	3_2	adjacent/none	dependency
2	3	5	1	963	8.jpg	14	104	0	none	none	3_2	none/none	none
2	3	6	1	1078	11.jpg	15	105	0	none	non-adjacent	3_2	none/non-adjacent	NA
2	3	7	1	1216	4.jpg	16	106	1	none	none	3_2	none/none	none
2	3	8	1	1225	7.jpg	17	107	0	none	none	3_2	none/none	none
2	3	9	1	922	2.jpg	18	108	0	non-adjacent	none	3_2	non-adjacent/none	dependency
2	3	1	1	904	8.jpg	19	109	0	none	none	3_3	none/none	none
2	3	2	1	1337	2.jpg	20	110	0	none	none	3_3	none/none	none
2	3	3	1	811	10.jpg	21	111	0	none	adjacent	3_3	none/adjacent	NA
2	3	4	1	2270	3.jpg	22	112	NA	adjacent	none	3_3	adjacent/none	dependency
2	3	6	1	875	11.jpg	24	114	0	none	non-adjacent	3_3	none/non-adjacent	NA
2	3	7	1	886	12.jpg	25	115	1	none	none	3_3	none/none	none
2	3	8	1	1360	7.jpg	26	116	0	none	none	3_3	none/none	none
2	3	9	1	1169	4.jpg	27	117	0	non-adjacent	none	3_3	non-adjacent/none	dependency
2	3	1	1	1904	4.jpg	28	118	0	none	none	3_4	none/none	none
2	3	2	1	737	8.jpg	29	119	0	none	none	3_4	none/none	none
2	3	3	1	730	10.jpg	30	120	0	none	adjacent	3_4	none/adjacent	NA
2	3	4	1	1114	3.jpg	31	121	NA	adjacent	none	3_4	adjacent/none	dependency
2	3	5	1	968	12.jpg	32	122	0	none	none	3_4	none/none	none
2	3	6	1	1026	11.jpg	33	123	0	none	non-adjacent	3_4	none/non-adjacent	NA
2	3	7	1	1587	2.jpg	34	124	1	none	none	3_4	none/none	none
2	3	8	1	1065	7.jpg	35	125	0	none	none	3_4	none/none	none
2	3	2	1	921	4.jpg	38	128	0	none	none	3_5	none/none	none
2	3	3	1	1018	10.jpg	39	129	0	none	adjacent	3_5	none/adjacent	NA
2	3	4	1	1161	3.jpg	40	130	NA	adjacent	none	3_5	adjacent/none	dependency
2	3	5	1	1200	2.jpg	41	131	0	none	none	3_5	none/none	none
2	3	6	1	1371	11.jpg	42	132	0	none	non-adjacent	3_5	none/non-adjacent	NA
2	3	7	1	969	8.jpg	43	133	1	none	none	3_5	none/none	none
2	3	8	1	1503	7.jpg	44	134	0	none	none	3_5	none/none	none
2	3	9	1	1201	12.jpg	45	135	0	non-adjacent	none	3_5	non-adjacent/none	dependency
2	4	1	1	798	8.jpg	1	136	0	none	none	4_1	none/none	none
2	4	2	1	1785	11.jpg	2	137	0	none	non-adjacent	4_1	none/non-adjacent	NA
2	4	3	1	1528	4.jpg	3	138	1	none	none	4_1	none/none	none
2	4	4	1	1911	7.jpg	4	139	0	none	none	4_1	none/none	none
2	4	6	1	1076	12.jpg	6	141	0	none	none	4_1	none/none	none
2	4	7	1	962	10.jpg	7	142	0	none	adjacent	4_1	none/adjacent	NA
2	4	8	1	1401	3.jpg	8	143	NA	adjacent	none	4_1	adjacent/none	dependency
2	4	9	1	850	2.jpg	9	144	0	none	none	4_1	none/none	none
2	4	2	1	874	11.jpg	11	146	0	none	non-adjacent	4_2	none/non-adjacent	NA
2	4	3	1	826	12.jpg	12	147	1	none	none	4_2	none/none	none
2	4	4	1	962	7.jpg	13	148	0	none	none	4_2	none/none	none
2	4	5	1	1129	2.jpg	14	149	0	non-adjacent	none	4_2	non-adjacent/none	dependency
2	4	6	1	1153	8.jpg	15	150	0	none	none	4_2	none/none	none
2	4	7	1	1045	10.jpg	16	151	0	none	adjacent	4_2	none/adjacent	NA
2	4	8	1	2606	3.jpg	17	152	NA	adjacent	none	4_2	adjacent/none	dependency
2	4	9	1	906	4.jpg	18	153	0	none	none	4_2	none/none	none
2	4	1	1	923	2.jpg	19	154	0	none	none	4_3	none/none	none
2	4	2	1	971	11.jpg	20	155	0	none	non-adjacent	4_3	none/non-adjacent	NA
2	4	3	1	1400	8.jpg	21	156	1	none	none	4_3	none/none	none
2	4	4	1	778	7.jpg	22	157	0	none	none	4_3	none/none	none
2	4	5	1	2064	4.jpg	23	158	0	non-adjacent	none	4_3	non-adjacent/none	dependency
2	4	7	1	2629	10.jpg	25	160	0	none	adjacent	4_3	none/adjacent	NA
2	4	8	1	2001	3.jpg	26	161	NA	adjacent	none	4_3	adjacent/none	dependency
2	4	9	1	3100	12.jpg	27	162	0	none	none	4_3	none/none	none
2	4	1	1	1190	4.jpg	28	163	0	none	none	4_4	none/none	none
2	4	2	1	1121	11.jpg	29	164	0	none	non-adjacent	4_4	none/non-adjacent	NA
2	4	4	1	1216	7.jpg	31	166	0	none	none	4_4	none/none	none
2	4	5	1	781	12.jpg	32	167	0	non-adjacent	none	4_4	non-adjacent/none	dependency
2	4	6	1	846	2.jpg	33	168	0	none	none	4_4	none/none	none
2	4	7	1	769	10.jpg	34	169	0	none	adjacent	4_4	none/adjacent	NA
2	4	8	1	978	3.jpg	35	170	NA	adjacent	none	4_4	adjacent/none	dependency
2	4	9	1	1033	8.jpg	36	171	0	none	none	4_4	none/none	none
2	4	1	1	1098	12.jpg	37	172	0	none	none	4_5	none/none	none
2	4	2	1	1026	11.jpg	38	173	0	none	non-adjacent	4_5	none/non-adjacent	NA
2	4	3	1	1183	2.jpg	39	174	1	none	none	4_5	none/none	none
2	4	4	1	1968	7.jpg	40	175	0	none	none	4_5	none/none	none
2	4	5	1	801	8.jpg	41	176	0	non-adjacent	none	4_5	non-adjacent/none	dependency
2	4	6	1	1343	4.jpg	42	177	0	none	none	4_5	none/none	none
2	4	7	1	1480	10.jpg	43	178	0	none	adjacent	4_5	none/adjacent	NA
2	4	8	1	1353	3.jpg	44	179	NA	adjacent	none	4_5	adjacent/none	dependency
2	5	1	1	846	8.jpg	1	181	0	none	none	5_1	none/none	none
2	5	2	1	810	12.jpg	2	182	0	none	none	5_1	none/none	none
2	5	3	1	921	10.jpg	3	183	0	none	adjacent	5_1	none/adjacent	NA
2	5	4	1	1233	3.jpg	4	184	NA	adjacent	none	5_1	adjacent/none	dependency
2	5	5	1	2072	4.jpg	5	185	0	none	none	5_1	none/none	none
2	5	6	1	849	11.jpg	6	186	0	none	non-adjacent	5_1	none/non-adjacent	NA
2	5	8	1	882	7.jpg	8	188	0	none	none	5_1	none/none	none
2	5	9	1	767	2.jpg	9	189	0	non-adjacent	none	5_1	non-adjacent/none	dependency
2	5	2	1	938	8.jpg	11	191	0	none	none	5_2	none/none	none
2	5	3	1	866	10.jpg	12	192	0	none	adjacent	5_2	none/adjacent	NA
2	5	4	1	1393	3.jpg	13	193	NA	adjacent	none	5_2	adjacent/none	dependency
2	5	5	1	3619	12.jpg	14	194	0	none	none	5_2	none/none	none
2	5	6	1	1004	11.jpg	15	195	0	none	non-adjacent	5_2	none/non-adjacent	NA
2	5	7	1	1032	2.jpg	16	196	1	none	none	5_2	none/none	none
2	5	8	1	1033	7.jpg	17	197	0	none	none	5_2	none/none	none
2	5	9	1	986	4.jpg	18	198	0	non-adjacent	none	5_2	non-adjacent/none	dependency
2	5	1	1	1141	4.jpg	19	199	0	none	none	5_3	none/none	none
2	5	2	1	946	2.jpg	20	200	0	none	none	5_3	none/none	none
2	5	3	1	905	10.jpg	21	201	0	none	adjacent	5_3	none/adjacent	NA
2	5	4	1	795	3.jpg	22	202	NA	adjacent	none	5_3	adjacent/none	dependency
2	5	6	1	867	11.jpg	24	204	0	none	non-adjacent	5_3	none/non-adjacent	NA
2	5	7	1	772	12.jpg	25	205	1	none	none	5_3	none/none	none
2	5	8	1	925	7.jpg	26	206	0	none	none	5_3	none/none	none
2	5	9	1	1258	8.jpg	27	207	0	non-adjacent	none	5_3	non-adjacent/none	dependency
2	5	1	1	991	12.jpg	28	208	0	none	none	5_4	none/none	none
2	5	2	1	993	4.jpg	29	209	0	none	none	5_4	none/none	none
2	5	3	1	2014	10.jpg	30	210	0	none	adjacent	5_4	none/adjacent	NA
2	5	4	1	1809	3.jpg	31	211	NA	adjacent	none	5_4	adjacent/none	dependency
2	5	5	1	1768	2.jpg	32	212	0	none	none	5_4	none/none	none
2	5	6	1	1218	11.jpg	33	213	0	none	non-adjacent	5_4	none/non-adjacent	NA
2	5	7	1	1328	8.jpg	34	214	1	none	none	5_4	none/none	none
2	5	8	1	1128	7.jpg	35	215	0	none	none	5_4	none/none	none
2	5	1	1	806	2.jpg	37	217	0	none	none	5_5	none/none	none
2	5	3	1	866	10.jpg	39	219	0	none	adjacent	5_5	none/adjacent	NA
2	5	4	1	978	3.jpg	40	220	NA	adjacent	none	5_5	adjacent/none	dependency
2	5	5	1	1010	8.jpg	41	221	0	none	none	5_5	none/none	none
2	5	6	1	922	11.jpg	42	222	0	none	non-adjacent	5_5	none/non-adjacent	NA
2	5	7	1	891	4.jpg	43	223	1	none	none	5_5	none/none	none
2	5	8	1	950	7.jpg	44	224	0	none	none	5_5	none/none	none
2	5	9	1	1432	12.jpg	45	225	0	non-adjacent	none	5_5	non-adjacent/none	dependency
2	6	1	1	884	8.jpg	1	226	0	none	none	6_1	none/none	none
2	6	2	1	970	11.jpg	2	227	0	none	non-adjacent	6_1	none/non-adjacent	NA
2	6	3	1	1072	2.jpg	3	228	1	none	none	6_1	none/none	none
2	6	4	1	866	7.jpg	4	229	0	none	none	6_1	none/none	none
2	6	6	1	794	12.jpg	6	231	0	none	none	6_1	none/none	none
2	6	7	1	1403	10.jpg	7	232	0	none	adjacent	6_1	none/adjacent	NA
2	6	8	1	1313	3.jpg	8	233	NA	adjacent	none	6_1	adjacent/none	dependency
2	6	9	1	986	4.jpg	9	234	0	none	none	6_1	none/none	none
2	6	1	1	1709	4.jpg	10	235	0	none	none	6_2	none/none	none
2	6	2	1	842	11.jpg	11	236	0	none	non-adjacent	6_2	none/non-adjacent	NA
2	6	3	1	1057	8.jpg	12	237	1	none	none	6_2	none/none	none
2	6	4	1	793	7.jpg	13	238	0	none	none	6_2	none/none	none
2	6	5	1	1194	12.jpg	14	239	0	non-adjacent	none	6_2	non-adjacent/none	dependency
2	6	6	1	921	2.jpg	15	240	0	none	none	6_2	none/none	none
2	6	7	1	757	10.jpg	16	241	0	none	adjacent	6_2	none/adjacent	NA
2	6	8	1	790	3.jpg	17	242	NA	adjacent	none	6_2	adjacent/none	dependency
2	6	2	1	2358	11.jpg	20	245	0	none	non-adjacent	6_3	none/non-adjacent	NA
2	6	3	1	954	4.jpg	21	246	1	none	none	6_3	none/none	none
2	6	4	1	857	7.jpg	22	247	0	none	none	6_3	none/none	none
2	6	5	1	859	2.jpg	23	248	0	non-adjacent	none	6_3	non-adjacent/none	dependency
2	6	6	1	727	8.jpg	24	249	0	none	none	6_3	none/none	none
2	6	7	1	937	10.jpg	25	250	0	none	adjacent	6_3	none/adjacent	NA
2	6	8	1	2287	3.jpg	26	251	NA	adjacent	none	6_3	adjacent/none	dependency
2	6	9	1	842	12.jpg	27	252	0	none	none	6_3	none/none	none
2	6	1	1	1122	2.jpg	28	253	0	none	none	6_4	none/none	none
2	6	2	1	1043	11.jpg	29	254	0	none	non-adjacent	6_4	none/non-adjacent	NA
2	6	3	1	706	12.jpg	30	255	1	none	none	6_4	none/none	none
2	6	4	1	851	7.jpg	31	256	0	none	none	6_4	none/none	none
2	6	5	1	905	4.jpg	32	257	0	non-adjacent	none	6_4	non-adjacent/none	dependency
2	6	7	1	1354	10.jpg	34	259	0	none	adjacent	6_4	none/adjacent	NA
2	6	8	1	1361	3.jpg	35	260	NA	adjacent	none	6_4	adjacent/none	dependency
2	6	9	1	1008	8.jpg	36	261	0	none	none	6_4	none/none	none
2	6	1	1	897	12.jpg	37	262	0	none	none	6_5	none/none	none
2	6	2	1	1209	11.jpg	38	263	0	none	non-adjacent	6_5	none/non-adjacent	NA
2	6	4	1	1233	7.jpg	40	265	0	none	none	6_5	none/none	none
2	6	5	1	867	8.jpg	41	266	0	non-adjacent	none	6_5	non-adjacent/none	dependency
2	6	6	1	1202	4.jpg	42	267	0	none	none	6_5	none/none	none
2	6	7	1	969	10.jpg	43	268	0	none	adjacent	6_5	none/adjacent	NA
2	6	8	1	1247	3.jpg	44	269	NA	adjacent	none	6_5	adjacent/none	dependency
2	6	9	1	1033	2.jpg	45	270	0	none	none	6_5	none/none	none
2	7	1	1	1264	12.jpg	1	271	0	none	none	7_1	none/none	none
2	7	2	1	2293	3.jpg	2	272	0	none	none	7_1	none/none	none
2	7	4	1	1544	11.jpg	4	274	0	none	non-adjacent	7_1	none/non-adjacent	NA
2	7	5	1	1131	4.jpg	5	275	1	none	none	7_1	none/none	none
2	7	6	1	1129	10.jpg	6	276	0	none	adjacent	7_1	none/adjacent	NA
2	7	7	1	1464	2.jpg	7	277	NA	both	none	7_1	both/none	dependency
2	7	8	1	1368	8.jpg	8	278	0	none	none	7_1	none/none	none
2	7	9	1	1496	7.jpg	9	279	0	none	none	7_1	none/none	none
2	7	1	1	935	7.jpg	10	280	0	none	none	7_2	none/none	none
2	7	2	1	770	12.jpg	11	281	0	none	none	7_2	none/none	none
2	7	3	1	4121	8.jpg	12	282	0	none	none	7_2	none/none	none
2	7	4	1	1050	2.jpg	13	283	0	none	none	7_2	none/none	none
2	7	5	1	967	10.jpg	14	284	0	none	adjacent	7_2	none/adjacent	NA
2	7	6	1	1136	11.jpg	15	285	NA	adjacent	non-adjacent	7_2	adjacent/non-adjacent	dependency
2	7	8	1	850	4.jpg	17	287	0	none	none	7_2	none/none	none
2	7	9	1	969	3.jpg	18	288	0	non-adjacent	none	7_2	non-adjacent/none	dependency
2	7	1	1	1686	11.jpg	19	289	0	none	non-adjacent	7_3	none/non-adjacent	NA
2	7	2	1	1009	2.jpg	20	290	1	none	none	7_3	none/none	none
2	7	3	1	826	4.jpg	21	291	0	none	none	7_3	none/none	none
2	7	4	1	1528	3.jpg	22	292	0	non-adjacent	none	7_3	non-adjacent/none	dependency
2	7	6	1	1434	7.jpg	24	294	0	none	none	7_3	none/none	none
2	7	7	1	1551	10.jpg	25	295	0	none	adjacent	7_3	none/adjacent	NA
2	7	8	1	1122	12.jpg	26	296	NA	adjacent	none	7_3	adjacent/none	dependency
2	7	9	1	841	8.jpg	27	297	0	none	none	7_3	none/none	none
2	7	1	1	1575	2.jpg	28	298	0	none	none	7_4	none/none	none
2	7	2	1	929	7.jpg	29	299	0	none	none	7_4	none/none	none
2	7	3	1	779	12.jpg	30	300	0	none	none	7_4	none/none	none
2	7	4	1	770	4.jpg	31	301	0	none	none	7_4	none/none	none
2	7	5	1	798	3.jpg	32	302	0	none	none	7_4	none/none	none
2	7	6	1	1047	8.jpg	33	303	0	none	none	7_4	none/none	none
2	7	7	1	1003	11.jpg	34	304	0	none	non-adjacent	7_4	none/non-adjacent	NA
2	7	8	1	865	10.jpg	35	305	1	none	adjacent	7_4	none/adjacent	NA
2	7	1	1	864	10.jpg	37	307	0	non-adjacent	adjacent	7_5	non-adjacent/adjacent	dependency
2	7	2	1	739	8.jpg	38	308	NA	adjacent	none	7_5	adjacent/none	dependency
2	7	3	1	610	3.jpg	39	309	0	none	none	7_5	none/none	none
2	7	4	1	961	7.jpg	40	310	0	none	none	7_5	none/none	none
2	7	5	1	891	11.jpg	41	311	0	none	non-adjacent	7_5	none/non-adjacent	NA
2	7	7	1	749	4.jpg	43	313	0	none	none	7_5	none/none	none
2	7	8	1	1133	2.jpg	44	314	0	non-adjacent	none	7_5	non-adjacent/none	dependency
2	7	9	1	1489	12.jpg	45	315	0	none	none	7_5	none/none	none
3	1	1	1	1298	4.jpg	1	1	0	none	none	1_1	none/none	none
3	1	2	1	1043	11.jpg	2	2	0	none	non-adjacent	1_1	none/non-adjacent	NA
3	1	3	1	2307	12.jpg	3	3	1	none	none	1_1	none/none	none
3	1	4	1	1291	7.jpg	4	4	0	none	none	1_1	none/none	none
3	1	5	1	1075	2.jpg	5	5	0	non-adjacent	none	1_1	non-adjacent/none	dependency
3	1	6	1	1251	8.jpg	6	6	0	none	none	1_1	none/none	none
3	1	7	1	1275	10.jpg	7	7	0	none	adjacent	1_1	none/adjacent	NA
3	1	8	1	971	3.jpg	8	8	NA	adjacent	none	1_1	adjacent/none	dependency
3	1	2	1	1091	11.jpg	11	11	0	none	non-adjacent	1_2	none/non-adjacent	NA
3	1	3	1	890	2.jpg	12	12	1	none	none	1_2	none/none	none
3	1	4	1	1698	7.jpg	13	13	0	none	none	1_2	none/none	none
3	1	5	1	906	8.jpg	14	14	0	non-adjacent	none	1_2	non-adjacent/none	dependency
3	1	6	1	883	4.jpg	15	15	0	none	none	1_2	none/none	none
3	1	7	1	931	10.jpg	16	16	0	none	adjacent	1_2	none/adjacent	NA
3	1	8	1	835	3.jpg	17	17	NA	adjacent	none	1_2	adjacent/none	dependency
3	1	9	1	1259	12.jpg	18	18	0	none	none	1_2	none/none	none
3	1	1	1	939	8.jpg	19	19	0	none	none	1_3	none/none	none
3	1	2	1	915	11.jpg	20	20	0	none	non-adjacent	1_3	none/non-adjacent	NA
3	1	4	0	1464	7.jpg	22	22	0	none	none	1_3	none/none	none
3	1	5	1	2163	12.jpg	23	23	0	non-adjacent	none	1_3	non-adjacent/none	dependency
3	1	6	1	922	2.jpg	24	24	0	none	none	1_3	none/none	none
3	1	7	1	1011	10.jpg	25	25	0	none	adjacent	1_3	none/adjacent	NA
3	1	8	1	1003	3.jpg	26	26	NA	adjacent	none	1_3	adjacent/none	dependency
3	1	9	1	908	4.jpg	27	27	0	none	none	1_3	none/none	none
3	1	1	1	753	2.jpg	28	28	0	none	none	1_4	none/none	none
3	1	2	1	947	11.jpg	29	29	0	none	non-adjacent	1_4	none/non-adjacent	NA
3	1	3	1	1131	4.jpg	30	30	1	none	none	1_4	none/none	none
3	1	4	1	1651	7.jpg	31	31	0	none	none	1_4	none/none	none
3	1	6	1	1491	12.jpg	33	33	0	none	none	1_4	none/none	none
3	1	7	1	1139	10.jpg	34	34	0	none	adjacent	1_4	none/adjacent	NA
3	1	8	1	923	3.jpg	35	35	NA	adjacent	none	1_4	adjacent/none	dependency
3	1	9	1	915	8.jpg	36	36	0	none	none	1_4	none/none	none
3	1	1	1	1447	12.jpg	37	37	0	none	none	1_5	none/none	none
3	1	2	1	1059	11.jpg	38	38	0	none	non-adjacent	1_5	none/non-adjacent	NA
3	1	3	1	971	8.jpg	39	39	1	none	none	1_5	none/none	none
3	1	4	1	1099	7.jpg	40	40	0	none	none	1_5	none/none	none
3	1	5	1	1139	4.jpg	41	41	0	non-adjacent	none	1_5	non-adjacent/none	dependency
3	1	7	1	923	10.jpg	43	43	0	none	adjacent	1_5	none/adjacent	NA
3	1	8	1	859	3.jpg	44	44	NA	adjacent	none	1_5	adjacent/none	dependency
3	1	9	1	779	2.jpg	45	45	0	none	none	1_5	none/none	none
3	2	1	1	785	2.jpg	1	46	0	none	none	2_1	none/none	none
3	2	2	1	923	8.jpg	2	47	0	none	none	2_1	none/none	none
3	2	3	1	1682	10.jpg	3	48	0	none	adjacent	2_1	none/adjacent	NA
3	2	4	1	1019	3.jpg	4	49	NA	adjacent	none	2_1	adjacent/none	dependency
3	2	5	1	707	4.jpg	5	50	0	none	none	2_1	none/none	none
3	2	6	1	963	11.jpg	6	51	0	none	non-adjacent	2_1	none/non-adjacent	NA
3	2	8	1	1204	7.jpg	8	53	0	none	none	2_1	none/none	none
3	2	9	1	1515	12.jpg	9	54	0	non-adjacent	none	2_1	non-adjacent/none	dependency
3	2	1	1	840	4.jpg	10	55	0	none	none	2_2	none/none	none
3	2	3	1	1883	10.jpg	12	57	0	none	adjacent	2_2	none/adjacent	NA
3	2	4	1	1027	3.jpg	13	58	NA	adjacent	none	2_2	adjacent/none	dependency
3	2	5	1	1499	12.jpg	14	59	0	none	none	2_2	none/none	none
3	2	6	1	970	11.jpg	15	60	0	none	non-adjacent	2_2	none/non-adjacent	NA
3	2	7	1	947	2.jpg	16	61	1	none	none	2_2	none/none	none
3	2	8	1	876	7.jpg	17	62	0	none	none	2_2	none/none	none
3	2	9	1	1251	8.jpg	18	63	0	non-adjacent	none	2_2	non-adjacent/none	dependency
3	2	1	1	858	12.jpg	19	64	0	none	none	2_3	none/none	none
3	2	2	1	1003	2.jpg	20	65	0	none	none	2_3	none/none	none
3	2	3	1	1003	10.jpg	21	66	0	none	adjacent	2_3	none/adjacent	NA
3	2	4	1	835	3.jpg	22	67	NA	adjacent	none	2_3	adjacent/none	dependency
3	2	5	1	987	8.jpg	23	68	0	none	none	2_3	none/none	none
3	2	6	1	867	11.jpg	24	69	0	none	non-adjacent	2_3	none/non-adjacent	NA
3	2	7	1	795	4.jpg	25	70	1	none	none	2_3	none/none	none
3	2	8	1	955	7.jpg	26	71	0	none	none	2_3	none/none	none
3	2	1	1	838	8.jpg	28	73	0	none	none	2_4	none/none	none
3	2	2	1	1275	4.jpg	29	74	0	none	none	2_4	none/none	none
3	2	3	1	1019	10.jpg	30	75	0	none	adjacent	2_4	none/adjacent	NA
3	2	4	1	979	3.jpg	31	76	NA	adjacent	none	2_4	adjacent/none	dependency
3	2	6	1	931	11.jpg	33	78	0	none	non-adjacent	2_4	none/non-adjacent	NA
3	2	7	1	1131	12.jpg	34	79	1	none	none	2_4	none/none	none
3	2	8	1	851	7.jpg	35	80	0	none	none	2_4	none/none	none
3	2	9	1	890	2.jpg	36	81	0	non-adjacent	none	2_4	non-adjacent/none	dependency
3	2	2	1	1082	12.jpg	38	83	0	none	none	2_5	none/none	none
3	2	3	1	978	10.jpg	39	84	0	none	adjacent	2_5	none/adjacent	NA
3	2	4	1	1194	3.jpg	40	85	NA	adjacent	none	2_5	adjacent/none	dependency
3	2	5	1	1002	2.jpg	41	86	0	none	none	2_5	none/none	none
3	2	6	1	906	11.jpg	42	87	0	none	non-adjacent	2_5	none/non-adjacent	NA
3	2	7	1	866	8.jpg	43	88	1	none	none	2_5	none/none	none
3	2	8	1	866	7.jpg	44	89	0	none	none	2_5	none/none	none
3	2	9	1	833	4.jpg	45	90	0	non-adjacent	none	2_5	non-adjacent/none	dependency
3	3	1	1	919	2.jpg	1	91	0	none	none	3_1	none/none	none
3	3	2	1	835	11.jpg	2	92	0	none	non-adjacent	3_1	none/non-adjacent	NA
3	3	3	1	843	8.jpg	3	93	1	none	none	3_1	none/none	none
3	3	4	1	835	7.jpg	4	94	0	none	none	3_1	none/none	none
3	3	5	1	819	4.jpg	5	95	0	non-adjacent	none	3_1	non-adjacent/none	dependency
3	3	7	1	1315	10.jpg	7	97	0	none	adjacent	3_1	none/adjacent	NA
3	3	8	1	971	3.jpg	8	98	NA	adjacent	none	3_1	adjacent/none	dependency
3	3	9	1	1339	12.jpg	9	99	0	none	none	3_1	none/none	none
3	3	1	1	772	12.jpg	10	100	0	none	none	3_2	none/none	none
3	3	2	1	931	11.jpg	11	101	0	none	non-adjacent	3_2	none/non-adjacent	NA
3	3	3	1	1258	2.jpg	12	102	1	none	none	3_2	none/none	none
3	3	4	1	1636	7.jpg	13	103	0	none	none	3_2	none/none	none
3	3	5	1	859	8.jpg	14	104	0	non-adjacent	none	3_2	non-adjacent/none	dependency
3	3	6	1	827	4.jpg	15	105	0	none	none	3_2	none/none	none
3	3	7	1	1283	10.jpg	16	106	0	none	adjacent	3_2	none/adjacent	NA
3	3	8	1	1330	3.jpg	17	107	NA	adjacent	none	3_2	adjacent/none	dependency
3	3	2	1	2451	11.jpg	20	110	0	none	non-adjacent	3_3	none/non-adjacent	NA
3	3	3	1	1067	12.jpg	21	111	1	none	none	3_3	none/none	none
3	3	4	1	1122	7.jpg	22	112	0	none	none	3_3	none/none	none
3	3	5	1	860	2.jpg	23	113	0	non-adjacent	none	3_3	non-adjacent/none	dependency
3	3	6	1	1203	8.jpg	24	114	0	none	none	3_3	none/none	none
3	3	7	1	1243	10.jpg	25	115	0	none	adjacent	3_3	none/adjacent	NA
3	3	8	1	1634	3.jpg	26	116	NA	adjacent	none	3_3	adjacent/none	dependency
3	3	9	1	1003	4.jpg	27	117	0	none	none	3_3	none/none	none
3	3	1	1	706	4.jpg	28	118	0	none	none	3_4	none/none	none
3	3	2	1	811	11.jpg	29	119	0	none	non-adjacent	3_4	none/non-adjacent	NA
3	3	4	1	1626	7.jpg	31	121	0	none	none	3_4	none/none	none
3	3	5	1	1380	12.jpg	32	122	0	non-adjacent	none	3_4	non-adjacent/none	dependency
3	3	6	1	1347	2.jpg	33	123	0	none	none	3_4	none/none	none
3	3	7	1	1131	10.jpg	34	124	0	none	adjacent	3_4	none/adjacent	NA
3	3	8	1	1114	3.jpg	35	125	NA	adjacent	none	3_4	adjacent/none	dependency
3	3	9	1	772	8.jpg	36	126	0	none	none	3_4	none/none	none
3	3	1	1	654	8.jpg	37	127	0	none	none	3_5	none/none	none
3	3	2	1	771	11.jpg	38	128	0	none	non-adjacent	3_5	none/non-adjacent	NA
3	3	3	1	779	4.jpg	39	129	1	none	none	3_5	none/none	none
3	3	4	1	875	7.jpg	40	130	0	none	none	3_5	none/none	none
3	3	6	1	803	12.jpg	42	132	0	none	none	3_5	none/none	none
3	3	7	1	1275	10.jpg	43	133	0	none	adjacent	3_5	none/adjacent	NA
3	3	8	1	979	3.jpg	44	134	NA	adjacent	none	3_5	adjacent/none	dependency
3	3	9	1	818	2.jpg	45	135	0	none	none	3_5	none/none	none
3	4	1	1	729	2.jpg	1	136	0	none	none	4_1	none/none	none
3	4	2	1	1242	12.jpg	2	137	0	none	none	4_1	none/none	none
3	4	3	1	1018	10.jpg	3	138	0	none	adjacent	4_1	none/adjacent	NA
3	4	4	1	1426	3.jpg	4	139	NA	adjacent	none	4_1	adjacent/none	dependency
3	4	5	1	1178	4.jpg	5	140	0	none	none	4_1	none/none	none
3	4	6	1	1354	11.jpg	6	141	0	none	non-adjacent	4_1	none/non-adjacent	NA
3	4	8	1	954	7.jpg	8	143	0	none	none	4_1	none/none	none
3	4	9	1	890	8.jpg	9	144	0	non-adjacent	none	4_1	non-adjacent/none	dependency
3	4	2	1	754	4.jpg	11	146	0	none	none	4_2	none/none	none
3	4	3	1	1011	10.jpg	12	147	0	none	adjacent	4_2	none/adjacent	NA
3	4	4	1	994	3.jpg	13	148	NA	adjacent	none	4_2	adjacent/none	dependency
3	4	5	0	1066	2.jpg	14	149	0	none	none	4_2	none/none	none
3	4	6	1	1562	11.jpg	15	150	0	none	non-adjacent	4_2	none/non-adjacent	NA
3	4	7	1	1595	8.jpg	16	151	1	none	none	4_2	none/none	none
3	4	8	1	954	7.jpg	17	152	0	none	none	4_2	none/none	none
3	4	9	1	787	12.jpg	18	153	0	non-adjacent	none	4_2	non-adjacent/none	dependency
3	4	1	1	993	8.jpg	19	154	0	none	none	4_3	none/none	none
3	4	2	1	1388	2.jpg	20	155	0	none	none	4_3	none/none	none
3	4	3	1	1170	10.jpg	21	156	0	none	adjacent	4_3	none/adjacent	NA
3	4	4	1	1275	3.jpg	22	157	NA	adjacent	none	4_3	adjacent/none	dependency
3	4	6	1	836	11.jpg	24	159	0	none	non-adjacent	4_3	none/non-adjacent	NA
3	4	7	1	1185	12.jpg	25	160	1	none	none	4_3	none/none	none
3	4	8	1	1955	7.jpg	26	161	0	none	none	4_3	none/none	none
3	4	9	1	1388	4.jpg	27	162	0	non-adjacent	none	4_3	non-adjacent/none	dependency
3	4	1	1	1384	4.jpg	28	163	0	none	none	4_4	none/none	none
3	4	2	1	1579	8.jpg	29	164	0	none	none	4_4	none/none	none
3	4	3	1	947	10.jpg	30	165	0	none	adjacent	4_4	none/adjacent	NA
3	4	4	1	794	3.jpg	31	166	NA	adjacent	none	4_4	adjacent/none	dependency
3	4	5	1	1156	12.jpg	32	167	0	none	none	4_4	none/none	none
3	4	6	1	906	11.jpg	33	168	0	none	non-adjacent	4_4	none/non-adjacent	NA
3	4	7	1	868	2.jpg	34	169	1	none	none	4_4	none/none	none
3	4	8	1	851	7.jpg	35	170	0	none	none	4_4	none/none	none
3	4	1	1	1509	12.jpg	37	172	0	none	none	4_5	none/none	none
3	4	3	1	1316	10.jpg	39	174	0	none	adjacent	4_5	none/adjacent	NA
3	4	4	1	787	3.jpg	40	175	NA	adjacent	none	4_5	adjacent/none	dependency
3	4	5	1	595	8.jpg	41	176	0	none	none	4_5	none/none	none
3	4	6	1	1667	11.jpg	42	177	0	none	non-adjacent	4_5	none/non-adjacent	NA
3	4	7	1	923	4.jpg	43	178	1	none	none	4_5	none/none	none
3	4	8	1	939	7.jpg	44	179	0	none	none	4_5	none/none	none
3	4	9	1	1163	2.jpg	45	180	0	non-adjacent	none	4_5	non-adjacent/none	dependency
3	5	1	1	1272	8.jpg	1	181	0	none	none	5_1	none/none	none
3	5	2	1	811	11.jpg	2	182	0	none	non-adjacent	5_1	none/non-adjacent	NA
3	5	3	1	747	2.jpg	3	183	1	none	none	5_1	none/none	none
3	5	4	1	891	7.jpg	4	184	0	none	none	5_1	none/none	none
3	5	6	1	2635	12.jpg	6	186	0	none	none	5_1	none/none	none
3	5	7	1	1403	10.jpg	7	187	0	none	adjacent	5_1	none/adjacent	NA
3	5	8	1	1027	3.jpg	8	188	NA	adjacent	none	5_1	adjacent/none	dependency
3	5	9	0	371	4.jpg	9	189	0	none	none	5_1	none/none	none
3	5	1	1	1744	12.jpg	10	190	0	none	none	5_2	none/none	none
3	5	2	1	851	11.jpg	11	191	0	none	non-adjacent	5_2	none/non-adjacent	NA
3	5	4	1	794	7.jpg	13	193	0	none	none	5_2	none/none	none
3	5	5	1	1156	8.jpg	14	194	0	non-adjacent	none	5_2	non-adjacent/none	dependency
3	5	6	1	747	4.jpg	15	195	0	none	none	5_2	none/none	none
3	5	7	1	1010	10.jpg	16	196	0	none	adjacent	5_2	none/adjacent	NA
3	5	8	1	1900	3.jpg	17	197	NA	adjacent	none	5_2	adjacent/none	dependency
3	5	9	1	875	2.jpg	18	198	0	none	none	5_2	none/none	none
3	5	1	1	1180	4.jpg	19	199	0	none	none	5_3	none/none	none
3	5	2	1	2035	11.jpg	20	200	0	none	non-adjacent	5_3	none/non-adjacent	NA
3	5	3	1	1811	8.jpg	21	201	1	none	none	5_3	none/none	none
3	5	4	1	1003	7.jpg	22	202	0	none	none	5_3	none/none	none
3	5	5	1	1659	12.jpg	23	203	0	non-adjacent	none	5_3	non-adjacent/none	dependency
3	5	6	1	1259	2.jpg	24	204	0	none	none	5_3	none/none	none
3	5	7	1	1235	10.jpg	25	205	0	none	adjacent	5_3	none/adjacent	NA
3	5	8	1	6691	3.jpg	26	206	NA	adjacent	none	5_3	adjacent/none	dependency
3	5	2	1	819	11.jpg	29	209	0	none	non-adjacent	5_4	none/non-adjacent	NA
3	5	3	1	1595	4.jpg	30	210	1	none	none	5_4	none/none	none
3	5	4	1	1707	7.jpg	31	211	0	none	none	5_4	none/none	none
3	5	5	1	851	2.jpg	32	212	0	non-adjacent	none	5_4	non-adjacent/none	dependency
3	5	6	1	738	8.jpg	33	213	0	none	none	5_4	none/none	none
3	5	7	1	804	10.jpg	34	214	0	none	adjacent	5_4	none/adjacent	NA
3	5	8	1	5076	3.jpg	35	215	NA	adjacent	none	5_4	adjacent/none	dependency
3	5	9	1	931	12.jpg	36	216	0	none	none	5_4	none/none	none
3	5	1	1	837	2.jpg	37	217	0	none	none	5_5	none/none	none
3	5	2	1	899	11.jpg	38	218	0	none	non-adjacent	5_5	none/non-adjacent	NA
3	5	3	1	1179	12.jpg	39	219	1	none	none	5_5	none/none	none
3	5	4	1	1003	7.jpg	40	220	0	none	none	5_5	none/none	none
3	5	5	1	1314	4.jpg	41	221	0	non-adjacent	none	5_5	non-adjacent/none	dependency
3	5	7	1	1115	10.jpg	43	223	0	none	adjacent	5_5	none/adjacent	NA
3	5	8	1	1619	3.jpg	44	224	NA	adjacent	none	5_5	adjacent/none	dependency
3	5	9	1	859	8.jpg	45	225	0	none	none	5_5	none/none	none
3	6	2	1	955	8.jpg	2	227	0	none	none	6_1	none/none	none
3	6	3	1	1267	10.jpg	3	228	0	none	adjacent	6_1	none/adjacent	NA
3	6	4	1	1347	3.jpg	4	229	NA	adjacent	none	6_1	adjacent/none	dependency
3	6	5	1	1050	12.jpg	5	230	0	none	none	6_1	none/none	none
3	6	6	1	1540	11.jpg	6	231	0	none	non-adjacent	6_1	none/non-adjacent	NA
3	6	7	1	971	2.jpg	7	232	1	none	none	6_1	none/none	none
3	6	8	1	1803	7.jpg	8	233	0	none	none	6_1	none/none	none
3	6	9	1	1371	4.jpg	9	234	0	non-adjacent	none	6_1	non-adjacent/none	dependency
3	6	1	1	1228	2.jpg	10	235	0	none	none	6_2	none/none	none
3	6	3	1	1339	10.jpg	12	237	0	none	adjacent	6_2	none/adjacent	NA
3	6	4	1	1795	3.jpg	13	238	NA	adjacent	none	6_2	adjacent/none	dependency
3	6	5	1	947	8.jpg	14	239	0	none	none	6_2	none/none	none
3	6	6	1	1187	11.jpg	15	240	0	none	non-adjacent	6_2	none/non-adjacent	NA
3	6	7	1	1027	4.jpg	16	241	1	none	none	6_2	none/none	none
3	6	8	1	979	7.jpg	17	242	0	none	none	6_2	none/none	none
3	6	9	1	907	12.jpg	18	243	0	non-adjacent	none	6_2	non-adjacent/none	dependency
3	6	1	1	1556	12.jpg	19	244	0	none	none	6_3	none/none	none
3	6	2	1	771	4.jpg	20	245	0	none	none	6_3	none/none	none
3	6	3	1	786	10.jpg	21	246	0	none	adjacent	6_3	none/adjacent	NA
3	6	4	1	1338	3.jpg	22	247	NA	adjacent	none	6_3	adjacent/none	dependency
3	6	5	1	907	2.jpg	23	248	0	none	none	6_3	none/none	none
3	6	6	1	923	11.jpg	24	249	0	none	non-adjacent	6_3	none/non-adjacent	NA
3	6	7	1	858	8.jpg	25	250	1	none	none	6_3	none/none	none
3	6	8	1	1002	7.jpg	26	251	0	none	none	6_3	none/none	none
3	6	1	1	706	4.jpg	28	253	0	none	none	6_4	none/none	none
3	6	2	1	834	2.jpg	29	254	0	none	none	6_4	none/none	none
3	6	3	1	914	10.jpg	30	255	0	none	adjacent	6_4	none/adjacent	NA
3	6	4	1	1738	3.jpg	31	256	NA	adjacent	none	6_4	adjacent/none	dependency
3	6	6	1	1002	11.jpg	33	258	0	none	non-adjacent	6_4	none/non-adjacent	NA
3	6	7	1	1202	12.jpg	34	259	1	none	none	6_4	none/none	none
3	6	8	1	1131	7.jpg	35	260	0	none	none	6_4	none/none	none
3	6	9	1	946	8.jpg	36	261	0	non-adjacent	none	6_4	non-adjacent/none	dependency
3	6	1	1	827	8.jpg	37	262	0	none	none	6_5	none/none	none
3	6	2	1	875	12.jpg	38	263	0	none	none	6_5	none/none	none
3	6	3	1	1531	10.jpg	39	264	0	none	adjacent	6_5	none/adjacent	NA
3	6	4	1	883	3.jpg	40	265	NA	adjacent	none	6_5	adjacent/none	dependency
3	6	5	1	1202	4.jpg	41	266	0	none	none	6_5	none/none	none
3	6	6	1	987	11.jpg	42	267	0	none	non-adjacent	6_5	none/non-adjacent	NA
3	6	8	1	1379	7.jpg	44	269	0	none	none	6_5	none/none	none
3	6	9	1	1122	2.jpg	45	270	0	non-adjacent	none	6_5	non-adjacent/none	dependency
3	7	1	1	1827	11.jpg	1	271	0	none	non-adjacent	7_1	none/non-adjacent	NA
3	7	2	1	867	2.jpg	2	272	1	none	none	7_1	none/none	none
3	7	3	1	971	4.jpg	3	273	0	none	none	7_1	none/none	none
3	7	4	1	1195	3.jpg	4	274	0	non-adjacent	none	7_1	non-adjacent/none	dependency
3	7	6	1	1051	7.jpg	6	276	0	none	none	7_1	none/none	none
3	7	7	1	1763	10.jpg	7	277	0	none	adjacent	7_1	none/adjacent	NA
3	7	8	1	1187	12.jpg	8	278	NA	adjacent	none	7_1	adjacent/none	dependency
3	7	9	1	1291	8.jpg	9	279	0	none	none	7_1	none/none	none
3	7	1	1	1461	7.jpg	10	280	0	none	none	7_2	none/none	none
3	7	2	1	723	12.jpg	11	281	0	none	none	7_2	none/none	none
3	7	3	1	874	8.jpg	12	282	0	none	none	7_2	none/none	none
3	7	4	1	1652	2.jpg	13	283	0	none	none	7_2	none/none	none
3	7	5	1	1003	10.jpg	14	284	0	none	adjacent	7_2	none/adjacent	NA
3	7	6	1	1314	11.jpg	15	285	NA	adjacent	non-adjacent	7_2	adjacent/non-adjacent	dependency
3	7	8	1	804	4.jpg	17	287	0	none	none	7_2	none/none	none
3	7	9	1	755	3.jpg	18	288	0	non-adjacent	none	7_2	non-adjacent/none	dependency
3	7	1	1	1598	4.jpg	19	289	0	none	none	7_3	none/none	none
3	7	3	1	1483	2.jpg	21	291	0	none	none	7_3	none/none	none
3	7	4	1	1083	12.jpg	22	292	0	none	none	7_3	none/none	none
3	7	5	1	843	8.jpg	23	293	0	none	none	7_3	none/none	none
3	7	6	1	1899	3.jpg	24	294	0	none	none	7_3	none/none	none
3	7	7	1	1131	7.jpg	25	295	0	none	none	7_3	none/none	none
3	7	8	1	1027	11.jpg	26	296	0	none	non-adjacent	7_3	none/non-adjacent	NA
3	7	9	1	1099	10.jpg	27	297	1	none	adjacent	7_3	none/adjacent	NA
3	7	1	1	1653	8.jpg	28	298	NA	adjacent	none	7_4	adjacent/none	dependency
3	7	2	1	1035	4.jpg	29	299	0	non-adjacent	none	7_4	non-adjacent/none	dependency
3	7	3	1	1467	10.jpg	30	300	0	none	adjacent	7_4	none/adjacent	NA
3	7	5	1	979	2.jpg	32	302	0	none	none	7_4	none/none	none
3	7	6	1	1043	12.jpg	33	303	0	none	none	7_4	none/none	none
3	7	7	1	1283	3.jpg	34	304	0	none	none	7_4	none/none	none
3	7	8	1	835	7.jpg	35	305	0	none	none	7_4	none/none	none
3	7	9	1	747	11.jpg	36	306	0	none	non-adjacent	7_4	none/non-adjacent	NA
3	7	1	1	795	2.jpg	37	307	1	none	none	7_5	none/none	none
3	7	2	1	915	7.jpg	38	308	0	none	none	7_5	none/none	none
3	7	3	1	931	12.jpg	39	309	0	non-adjacent	none	7_5	non-adjacent/none	dependency
3	7	4	1	931	4.jpg	40	310	0	none	none	7_5	none/none	none
3	7	5	1	1979	3.jpg	41	311	0	none	none	7_5	none/none	none
3	7	6	1	1139	8.jpg	42	312	0	none	none	7_5	none/none	none
3	7	7	1	1107	11.jpg	43	313	0	none	non-adjacent	7_5	none/non-adjacent	NA
3	7	8	1	1355	10.jpg	44	314	1	none	adjacent	7_5	none/adjacent	NA
4	1	1	1	2580	2.jpg	1	1	0	none	none	1_1	none/none	none
4	1	2	1	1456	4.jpg	2	2	0	none	none	1_1	none/none	none
4	1	3	1	1768	10.jpg	3	3	0	none	adjacent	1_1	none/adjacent	NA
4	1	4	1	1033	3.jpg	4	4	NA	adjacent	none	1_1	adjacent/none	dependency
4	1	6	1	1090	11.jpg	6	6	0	none	non-adjacent	1_1	none/non-adjacent	NA
4	1	7	1	1025	8.jpg	7	7	1	none	none	1_1	none/none	none
4	1	8	1	1879	7.jpg	8	8	0	none	none	1_1	none/none	none
4	1	9	0	1122	12.jpg	9	9	0	non-adjacent	none	1_1	non-adjacent/none	dependency
4	1	1	0	854	4.jpg	10	10	0	none	none	1_2	none/none	none
4	1	3	1	1105	10.jpg	12	12	0	none	adjacent	1_2	none/adjacent	NA
4	1	4	1	1313	3.jpg	13	13	NA	adjacent	none	1_2	adjacent/none	dependency
4	1	5	1	1121	8.jpg	14	14	0	none	none	1_2	none/none	none
4	1	6	1	933	11.jpg	15	15	0	none	non-adjacent	1_2	none/non-adjacent	NA
4	1	7	1	1620	12.jpg	16	16	1	none	none	1_2	none/none	none
4	1	8	0	1360	7.jpg	17	17	0	none	none	1_2	none/none	none
4	1	9	0	1209	2.jpg	18	18	0	non-adjacent	none	1_2	non-adjacent/none	dependency
4	1	1	1	1063	8.jpg	19	19	0	none	none	1_3	none/none	none
4	1	2	1	1568	12.jpg	20	20	0	none	none	1_3	none/none	none
4	1	3	1	898	10.jpg	21	21	0	none	adjacent	1_3	none/adjacent	NA
4	1	4	1	1090	3.jpg	22	22	NA	adjacent	none	1_3	adjacent/none	dependency
4	1	5	0	1192	2.jpg	23	23	0	none	none	1_3	none/none	none
4	1	6	1	1012	11.jpg	24	24	0	none	non-adjacent	1_3	none/non-adjacent	NA
4	1	7	1	937	4.jpg	25	25	1	none	none	1_3	none/none	none
4	1	8	1	1486	7.jpg	26	26	0	none	none	1_3	none/none	none
4	1	1	1	3334	12.jpg	28	28	0	none	none	1_4	none/none	none
4	1	2	0	881	2.jpg	29	29	0	none	none	1_4	none/none	none
4	1	3	1	962	10.jpg	30	30	0	none	adjacent	1_4	none/adjacent	NA
4	1	4	1	1170	3.jpg	31	31	NA	adjacent	none	1_4	adjacent/none	dependency
4	1	5	1	1097	4.jpg	32	32	0	none	none	1_4	none/none	none
4	1	6	1	1029	11.jpg	33	33	0	none	non-adjacent	1_4	none/non-adjacent	NA
4	1	8	1	1199	7.jpg	35	35	0	none	none	1_4	none/none	none
4	1	9	1	993	8.jpg	36	36	0	non-adjacent	none	1_4	non-adjacent/none	dependency
4	1	2	1	1153	8.jpg	38	38	0	none	none	1_5	none/none	none
4	1	3	1	921	10.jpg	39	39	0	none	adjacent	1_5	none/adjacent	NA
4	1	4	1	977	3.jpg	40	40	NA	adjacent	none	1_5	adjacent/none	dependency
4	1	5	1	1976	12.jpg	41	41	0	none	none	1_5	none/none	none
4	1	6	1	947	11.jpg	42	42	0	none	non-adjacent	1_5	none/non-adjacent	NA
4	1	7	0	910	2.jpg	43	43	1	none	none	1_5	none/none	none
4	1	8	1	898	7.jpg	44	44	0	none	none	1_5	none/none	none
4	1	9	1	897	4.jpg	45	45	0	non-adjacent	none	1_5	non-adjacent/none	dependency
4	2	2	1	1600	11.jpg	2	47	0	none	non-adjacent	2_1	none/non-adjacent	NA
4	2	3	1	1344	12.jpg	3	48	1	none	none	2_1	none/none	none
4	2	4	1	3483	7.jpg	4	49	0	none	none	2_1	none/none	none
4	2	5	0	972	2.jpg	5	50	0	non-adjacent	none	2_1	non-adjacent/none	dependency
4	2	6	1	1165	4.jpg	6	51	0	none	none	2_1	none/none	none
4	2	7	1	930	10.jpg	7	52	0	none	adjacent	2_1	none/adjacent	NA
4	2	8	1	1050	3.jpg	8	53	NA	adjacent	none	2_1	adjacent/none	dependency
4	2	9	1	1703	8.jpg	9	54	0	none	none	2_1	none/none	none
4	2	1	1	1235	8.jpg	10	55	0	none	none	2_2	none/none	none
4	2	2	1	1184	11.jpg	11	56	0	none	non-adjacent	2_2	none/non-adjacent	NA
4	2	3	0	1424	2.jpg	12	57	1	none	none	2_2	none/none	none
4	2	4	1	2406	7.jpg	13	58	0	none	none	2_2	none/none	none
4	2	5	1	859	4.jpg	14	59	0	non-adjacent	none	2_2	non-adjacent/none	dependency
4	2	7	1	1130	10.jpg	16	61	0	none	adjacent	2_2	none/adjacent	NA
4	2	8	1	1361	3.jpg	17	62	NA	adjacent	none	2_2	adjacent/none	dependency
4	2	9	1	1361	12.jpg	18	63	0	none	none	2_2	none/none	none
4	2	1	1	1432	4.jpg	19	64	0	none	none	2_3	none/none	none
4	2	2	1	1130	11.jpg	20	65	0	none	non-adjacent	2_3	none/non-adjacent	NA
4	2	3	1	953	8.jpg	21	66	1	none	none	2_3	none/none	none
4	2	4	1	2279	7.jpg	22	67	0	none	none	2_3	none/none	none
4	2	5	1	1102	12.jpg	23	68	0	non-adjacent	none	2_3	non-adjacent/none	dependency
4	2	6	0	1081	2.jpg	24	69	0	none	none	2_3	none/none	none
4	2	7	1	1017	10.jpg	25	70	0	none	adjacent	2_3	none/adjacent	NA
4	2	8	1	994	3.jpg	26	71	NA	adjacent	none	2_3	adjacent/none	dependency
4	2	1	1	2590	2.jpg	28	73	0	none	none	2_4	none/none	none
4	2	2	1	1226	11.jpg	29	74	0	none	non-adjacent	2_4	none/non-adjacent	NA
4	2	4	1	2415	7.jpg	31	76	0	none	none	2_4	none/none	none
4	2	5	1	1004	8.jpg	32	77	0	non-adjacent	none	2_4	non-adjacent/none	dependency
4	2	6	1	937	12.jpg	33	78	0	none	none	2_4	none/none	none
4	2	7	1	967	10.jpg	34	79	0	none	adjacent	2_4	none/adjacent	NA
4	2	8	1	915	3.jpg	35	80	NA	adjacent	none	2_4	adjacent/none	dependency
4	2	9	1	833	4.jpg	36	81	0	none	none	2_4	none/none	none
4	2	1	1	1361	12.jpg	37	82	0	none	none	2_5	none/none	none
4	2	2	1	986	11.jpg	38	83	0	none	non-adjacent	2_5	none/non-adjacent	NA
4	2	3	1	905	4.jpg	39	84	1	none	none	2_5	none/none	none
4	2	4	1	1265	7.jpg	40	85	0	none	none	2_5	none/none	none
4	2	6	1	775	8.jpg	42	87	0	none	none	2_5	none/none	none
4	2	7	1	829	10.jpg	43	88	0	none	adjacent	2_5	none/adjacent	NA
4	2	8	1	967	3.jpg	44	89	NA	adjacent	none	2_5	adjacent/none	dependency
4	2	9	0	817	2.jpg	45	90	0	none	none	2_5	none/none	none
4	3	2	1	770	4.jpg	2	92	0	none	none	3_1	none/none	none
4	3	3	1	634	10.jpg	3	93	0	none	adjacent	3_1	none/adjacent	NA
4	3	4	1	1961	3.jpg	4	94	NA	adjacent	none	3_1	adjacent/none	dependency
4	3	5	1	985	12.jpg	5	95	0	none	none	3_1	none/none	none
4	3	6	1	892	11.jpg	6	96	0	none	non-adjacent	3_1	none/non-adjacent	NA
4	3	7	1	1667	2.jpg	7	97	1	none	none	3_1	none/none	none
4	3	8	1	1177	7.jpg	8	98	0	none	none	3_1	none/none	none
4	3	9	1	1192	8.jpg	9	99	0	non-adjacent	none	3_1	non-adjacent/none	dependency
4	3	1	1	2012	4.jpg	10	100	0	none	none	3_2	none/none	none
4	3	2	1	977	2.jpg	11	101	0	none	none	3_2	none/none	none
4	3	3	1	2317	10.jpg	12	102	0	none	adjacent	3_2	none/adjacent	NA
4	3	4	1	1050	3.jpg	13	103	NA	adjacent	none	3_2	adjacent/none	dependency
4	3	5	1	1019	8.jpg	14	104	0	none	none	3_2	none/none	none
4	3	6	1	1234	11.jpg	15	105	0	none	non-adjacent	3_2	none/non-adjacent	NA
4	3	7	1	920	12.jpg	16	106	1	none	none	3_2	none/none	none
4	3	8	1	1439	7.jpg	17	107	0	none	none	3_2	none/none	none
4	3	1	1	1001	8.jpg	19	109	0	none	none	3_3	none/none	none
4	3	3	1	1735	10.jpg	21	111	0	none	adjacent	3_3	none/adjacent	NA
4	3	4	1	1194	3.jpg	22	112	NA	adjacent	none	3_3	adjacent/none	dependency
4	3	5	0	1384	2.jpg	23	113	0	none	none	3_3	none/none	none
4	3	6	1	2138	11.jpg	24	114	0	none	non-adjacent	3_3	none/non-adjacent	NA
4	3	7	1	792	4.jpg	25	115	1	none	none	3_3	none/none	none
4	3	8	1	832	7.jpg	26	116	0	none	none	3_3	none/none	none
4	3	9	1	914	12.jpg	27	117	0	non-adjacent	none	3_3	non-adjacent/none	dependency
4	3	1	1	1221	2.jpg	28	118	0	none	none	3_4	none/none	none
4	3	2	1	2007	12.jpg	29	119	0	none	none	3_4	none/none	none
4	3	3	1	818	10.jpg	30	120	0	none	adjacent	3_4	none/adjacent	NA
4	3	4	1	914	3.jpg	31	121	NA	adjacent	none	3_4	adjacent/none	dependency
4	3	6	1	1131	11.jpg	33	123	0	none	non-adjacent	3_4	none/non-adjacent	NA
4	3	7	1	842	8.jpg	34	124	1	none	none	3_4	none/none	none
4	3	8	1	928	7.jpg	35	125	0	none	none	3_4	none/none	none
4	3	9	1	928	4.jpg	36	126	0	non-adjacent	none	3_4	non-adjacent/none	dependency
4	3	1	1	1014	12.jpg	37	127	0	none	none	3_5	none/none	none
4	3	2	1	840	8.jpg	38	128	0	none	none	3_5	none/none	none
4	3	3	1	1225	10.jpg	39	129	0	none	adjacent	3_5	none/adjacent	NA
4	3	4	1	954	3.jpg	40	130	NA	adjacent	none	3_5	adjacent/none	dependency
4	3	5	1	826	4.jpg	41	131	0	none	none	3_5	none/none	none
4	3	6	1	936	11.jpg	42	132	0	none	non-adjacent	3_5	none/non-adjacent	NA
4	3	8	1	966	7.jpg	44	134	0	none	none	3_5	none/none	none
4	3	9	1	1368	2.jpg	45	135	0	non-adjacent	none	3_5	non-adjacent/none	dependency
4	4	1	1	1467	12.jpg	1	136	0	none	none	4_1	none/none	none
4	4	2	1	1122	11.jpg	2	137	0	none	non-adjacent	4_1	none/non-adjacent	NA
4	4	3	1	1551	2.jpg	3	138	1	none	none	4_1	none/none	none
4	4	4	1	922	7.jpg	4	139	0	none	none	4_1	none/none	none
4	4	5	1	898	4.jpg	5	140	0	non-adjacent	none	4_1	non-adjacent/none	dependency
4	4	7	1	838	10.jpg	7	142	0	none	adjacent	4_1	none/adjacent	NA
4	4	8	1	1161	3.jpg	8	143	NA	adjacent	none	4_1	adjacent/none	dependency
4	4	9	1	985	8.jpg	9	144	0	none	none	4_1	none/none	none
4	4	2	1	1232	11.jpg	11	146	0	none	non-adjacent	4_2	none/non-adjacent	NA
4	4	3	1	938	8.jpg	12	147	1	none	none	4_2	none/none	none
4	4	4	1	1280	7.jpg	13	148	0	none	none	4_2	none/none	none
4	4	5	1	738	12.jpg	14	149	0	non-adjacent	none	4_2	non-adjacent/none	dependency
4	4	6	1	1362	2.jpg	15	150	0	none	none	4_2	none/none	none
4	4	7	1	882	10.jpg	16	151	0	none	adjacent	4_2	none/adjacent	NA
4	4	8	1	992	3.jpg	17	152	NA	adjacent	none	4_2	adjacent/none	dependency
4	4	9	1	937	4.jpg	18	153	0	none	none	4_2	none/none	none
4	4	1	1	945	2.jpg	19	154	0	none	none	4_3	none/none	none
4	4	2	1	1058	11.jpg	20	155	0	none	non-adjacent	4_3	none/non-adjacent	NA
4	4	3	1	1152	4.jpg	21	156	1	none	none	4_3	none/none	none
4	4	4	1	793	7.jpg	22	157	0	none	none	4_3	none/none	none
4	4	6	1	729	8.jpg	24	159	0	none	none	4_3	none/none	none
4	4	7	1	725	10.jpg	25	160	0	none	adjacent	4_3	none/adjacent	NA
4	4	8	1	966	3.jpg	26	161	NA	adjacent	none	4_3	adjacent/none	dependency
4	4	9	1	738	12.jpg	27	162	0	none	none	4_3	none/none	none
4	4	1	1	777	8.jpg	28	163	0	none	none	4_4	none/none	none
4	4	2	1	961	11.jpg	29	164	0	none	non-adjacent	4_4	none/non-adjacent	NA
4	4	3	1	1065	12.jpg	30	165	1	none	none	4_4	none/none	none
4	4	4	1	969	7.jpg	31	166	0	none	none	4_4	none/none	none
4	4	5	1	1057	2.jpg	32	167	0	non-adjacent	none	4_4	non-adjacent/none	dependency
4	4	6	1	827	4.jpg	33	168	0	none	none	4_4	none/none	none
4	4	7	1	814	10.jpg	34	169	0	none	adjacent	4_4	none/adjacent	NA
4	4	8	1	954	3.jpg	35	170	NA	adjacent	none	4_4	adjacent/none	dependency
4	4	1	1	2967	4.jpg	37	172	0	none	none	4_5	none/none	none
4	4	2	1	1186	11.jpg	38	173	0	none	non-adjacent	4_5	none/non-adjacent	NA
4	4	4	1	897	7.jpg	40	175	0	none	none	4_5	none/none	none
4	4	5	1	1201	8.jpg	41	176	0	non-adjacent	none	4_5	non-adjacent/none	dependency
4	4	6	1	917	12.jpg	42	177	0	none	none	4_5	none/none	none
4	4	7	1	909	10.jpg	43	178	0	none	adjacent	4_5	none/adjacent	NA
4	4	8	1	849	3.jpg	44	179	NA	adjacent	none	4_5	adjacent/none	dependency
4	4	9	1	977	2.jpg	45	180	0	none	none	4_5	none/none	none
4	5	1	1	885	4.jpg	1	181	0	none	none	5_1	none/none	none
4	5	2	0	1146	12.jpg	2	182	0	none	none	5_1	none/none	none
4	5	3	1	1535	10.jpg	3	183	0	none	adjacent	5_1	none/adjacent	NA
4	5	4	1	1258	3.jpg	4	184	NA	adjacent	none	5_1	adjacent/none	dependency
4	5	6	1	718	11.jpg	6	186	0	none	non-adjacent	5_1	none/non-adjacent	NA
4	5	7	1	705	8.jpg	7	187	1	none	none	5_1	none/none	none
4	5	8	1	784	7.jpg	8	188	0	none	none	5_1	none/none	none
4	5	9	1	1146	2.jpg	9	189	0	non-adjacent	none	5_1	non-adjacent/none	dependency
4	5	1	1	1077	12.jpg	10	190	0	none	none	5_2	none/none	none
4	5	3	1	1065	10.jpg	12	192	0	none	adjacent	5_2	none/adjacent	NA
4	5	4	1	1393	3.jpg	13	193	NA	adjacent	none	5_2	adjacent/none	dependency
4	5	5	1	1113	2.jpg	14	194	0	none	none	5_2	none/none	none
4	5	6	1	1073	11.jpg	15	195	0	none	non-adjacent	5_2	none/non-adjacent	NA
4	5	7	1	3873	4.jpg	16	196	1	none	none	5_2	none/none	none
4	5	8	1	1113	7.jpg	17	197	0	none	none	5_2	none/none	none
4	5	9	1	898	8.jpg	18	198	0	non-adjacent	none	5_2	non-adjacent/none	dependency
4	5	1	1	3978	8.jpg	19	199	0	none	none	5_3	none/none	none
4	5	2	1	705	4.jpg	20	200	0	none	none	5_3	none/none	none
4	5	3	1	883	10.jpg	21	201	0	none	adjacent	5_3	none/adjacent	NA
4	5	4	0	1193	3.jpg	22	202	NA	adjacent	none	5_3	adjacent/none	dependency
4	5	5	1	1664	12.jpg	23	203	0	none	none	5_3	none/none	none
4	5	6	1	956	11.jpg	24	204	0	none	non-adjacent	5_3	none/non-adjacent	NA
4	5	7	1	946	2.jpg	25	205	1	none	none	5_3	none/none	none
4	5	8	1	1433	7.jpg	26	206	0	none	none	5_3	none/none	none
4	5	1	1	917	2.jpg	28	208	0	none	none	5_4	none/none	none
4	5	2	1	1416	8.jpg	29	209	0	none	none	5_4	none/none	none
4	5	3	1	970	10.jpg	30	210	0	none	adjacent	5_4	none/adjacent	NA
4	5	4	1	1225	3.jpg	31	211	NA	adjacent	none	5_4	adjacent/none	dependency
4	5	5	1	1024	4.jpg	32	212	0	none	none	5_4	none/none	none
4	5	6	1	1306	11.jpg	33	213	0	none	non-adjacent	5_4	none/non-adjacent	NA
4	5	8	1	1286	7.jpg	35	215	0	none	none	5_4	none/none	none
4	5	9	1	945	12.jpg	36	216	0	non-adjacent	none	5_4	non-adjacent/none	dependency
4	5	2	1	913	2.jpg	38	218	0	none	none	5_5	none/none	none
4	5	3	1	769	10.jpg	39	219	0	none	adjacent	5_5	none/adjacent	NA
4	5	4	1	946	3.jpg	40	220	NA	adjacent	none	5_5	adjacent/none	dependency
4	5	5	1	2270	8.jpg	41	221	0	none	none	5_5	none/none	none
4	5	6	1	884	11.jpg	42	222	0	none	non-adjacent	5_5	none/non-adjacent	NA
4	5	7	1	1316	12.jpg	43	223	1	none	none	5_5	none/none	none
4	5	8	1	1001	7.jpg	44	224	0	none	none	5_5	none/none	none
4	5	9	1	865	4.jpg	45	225	0	non-adjacent	none	5_5	non-adjacent/none	dependency
4	6	1	1	1279	4.jpg	1	226	0	none	none	6_1	none/none	none
4	6	2	1	786	11.jpg	2	227	0	none	non-adjacent	6_1	none/non-adjacent	NA
4	6	3	1	944	2.jpg	3	228	1	none	none	6_1	none/none	none
4	6	4	1	2167	7.jpg	4	229	0	none	none	6_1	none/none	none
4	6	5	1	993	8.jpg	5	230	0	non-adjacent	none	6_1	non-adjacent/none	dependency
4	6	6	1	1005	12.jpg	6	231	0	none	none	6_1	none/none	none
4	6	7	1	905	10.jpg	7	232	0	none	adjacent	6_1	none/adjacent	NA
4	6	8	1	1272	3.jpg	8	233	NA	adjacent	none	6_1	adjacent/none	dependency
4	6	1	1	1315	12.jpg	10	235	0	none	none	6_2	none/none	none
4	6	2	1	1289	11.jpg	11	236	0	none	non-adjacent	6_2	none/non-adjacent	NA
4	6	3	1	1224	8.jpg	12	237	1	none	none	6_2	none/none	none
4	6	4	1	874	7.jpg	13	238	0	none	none	6_2	none/none	none
4	6	5	1	1105	4.jpg	14	239	0	non-adjacent	none	6_2	non-adjacent/none	dependency
4	6	7	1	1105	10.jpg	16	241	0	none	adjacent	6_2	none/adjacent	NA
4	6	8	1	1177	3.jpg	17	242	NA	adjacent	none	6_2	adjacent/none	dependency
4	6	9	1	1002	2.jpg	18	243	0	none	none	6_2	none/none	none
4	6	1	1	868	8.jpg	19	244	0	none	none	6_3	none/none	none
4	6	2	1	4297	11.jpg	20	245	0	none	non-adjacent	6_3	none/non-adjacent	NA
4	6	4	1	798	7.jpg	22	247	0	none	none	6_3	none/none	none
4	6	5	1	1033	2.jpg	23	248	0	non-adjacent	none	6_3	non-adjacent/none	dependency
4	6	6	1	754	4.jpg	24	249	0	none	none	6_3	none/none	none
4	6	7	1	777	10.jpg	25	250	0	none	adjacent	6_3	none/adjacent	NA
4	6	8	1	1689	3.jpg	26	251	NA	adjacent	none	6_3	adjacent/none	dependency
4	6	9	1	1025	12.jpg	27	252	0	none	none	6_3	none/none	none
4	6	2	1	1210	11.jpg	29	254	0	none	non-adjacent	6_4	none/non-adjacent	NA
4	6	3	1	1280	4.jpg	30	255	1	none	none	6_4	none/none	none
4	6	4	1	1010	7.jpg	31	256	0	none	none	6_4	none/none	none
4	6	5	1	1018	12.jpg	32	257	0	non-adjacent	none	6_4	non-adjacent/none	dependency
4	6	6	1	789	2.jpg	33	258	0	none	none	6_4	none/none	none
4	6	7	1	910	10.jpg	34	259	0	none	adjacent	6_4	none/adjacent	NA
4	6	8	1	1017	3.jpg	35	260	NA	adjacent	none	6_4	adjacent/none	dependency
4	6	9	1	2191	8.jpg	36	261	0	none	none	6_4	none/none	none
4	6	1	1	2180	2.jpg	37	262	0	none	none	6_5	none/none	none
4	6	2	1	3117	11.jpg	38	263	0	none	non-adjacent	6_5	none/non-adjacent	NA
4	6	3	1	1297	12.jpg	39	264	1	none	none	6_5	none/none	none
4	6	4	1	1895	7.jpg	40	265	0	none	none	6_5	none/none	none
4	6	6	1	2323	8.jpg	42	267	0	none	none	6_5	none/none	none
4	6	7	1	3683	10.jpg	43	268	0	none	adjacent	6_5	none/adjacent	NA
4	6	8	1	1010	3.jpg	44	269	NA	adjacent	none	6_5	adjacent/none	dependency
4	6	9	1	889	4.jpg	45	270	0	none	none	6_5	none/none	none
4	7	1	1	1500	4.jpg	1	271	0	none	none	7_1	none/none	none
4	7	3	1	954	2.jpg	3	273	0	none	none	7_1	none/none	none
4	7	4	1	977	12.jpg	4	274	0	none	none	7_1	none/none	none
4	7	5	1	4399	8.jpg	5	275	0	none	none	7_1	none/none	none
4	7	6	1	1129	3.jpg	6	276	0	none	none	7_1	none/none	none
4	7	7	1	2595	7.jpg	7	277	0	none	none	7_1	none/none	none
4	7	8	1	1033	11.jpg	8	278	0	none	non-adjacent	7_1	none/non-adjacent	NA
4	7	9	1	1256	10.jpg	9	279	1	none	adjacent	7_1	none/adjacent	NA
4	7	1	1	1456	3.jpg	10	280	NA	adjacent	none	7_2	adjacent/none	dependency
4	7	2	1	1024	10.jpg	11	281	0	non-adjacent	adjacent	7_2	non-adjacent/adjacent	dependency
4	7	3	1	1025	11.jpg	12	282	NA	adjacent	non-adjacent	7_2	adjacent/non-adjacent	dependency
4	7	4	1	1935	8.jpg	13	283	1	none	none	7_2	none/none	none
4	7	5	1	2493	7.jpg	14	284	0	none	none	7_2	none/none	none
4	7	6	1	1060	4.jpg	15	285	0	non-adjacent	none	7_2	non-adjacent/none	dependency
4	7	7	1	1680	12.jpg	16	286	0	none	none	7_2	none/none	none
4	7	9	1	1049	2.jpg	18	288	0	none	none	7_2	none/none	none
4	7	1	1	1181	2.jpg	19	289	0	none	none	7_3	none/none	none
4	7	2	1	1065	7.jpg	20	290	0	none	none	7_3	none/none	none
4	7	3	1	1752	12.jpg	21	291	0	none	none	7_3	none/none	none
4	7	4	1	1232	4.jpg	22	292	0	none	none	7_3	none/none	none
4	7	5	1	1212	3.jpg	23	293	0	none	none	7_3	none/none	none
4	7	6	1	1208	8.jpg	24	294	0	none	none	7_3	none/none	none
4	7	7	1	1361	11.jpg	25	295	0	none	non-adjacent	7_3	none/non-adjacent	NA
4	7	8	1	1153	10.jpg	26	296	1	none	adjacent	7_3	none/adjacent	NA
4	7	1	1	873	10.jpg	28	298	0	non-adjacent	adjacent	7_4	non-adjacent/adjacent	dependency
4	7	2	1	1121	8.jpg	29	299	NA	adjacent	none	7_4	adjacent/none	dependency
4	7	3	1	851	3.jpg	30	300	0	none	none	7_4	none/none	none
4	7	4	0	2102	7.jpg	31	301	0	none	none	7_4	none/none	none
4	7	5	1	2535	11.jpg	32	302	0	none	non-adjacent	7_4	none/non-adjacent	NA
4	7	7	1	946	4.jpg	34	304	0	none	none	7_4	none/none	none
4	7	8	1	906	2.jpg	35	305	0	non-adjacent	none	7_4	non-adjacent/none	dependency
4	7	9	1	1329	12.jpg	36	306	0	none	none	7_4	none/none	none
4	7	1	1	785	7.jpg	37	307	0	none	none	7_5	none/none	none
4	7	2	1	1114	12.jpg	38	308	0	none	none	7_5	none/none	none
4	7	3	1	841	8.jpg	39	309	0	none	none	7_5	none/none	none
4	7	4	1	954	2.jpg	40	310	0	none	none	7_5	none/none	none
4	7	5	1	907	10.jpg	41	311	0	none	adjacent	7_5	none/adjacent	NA
4	7	6	1	1321	11.jpg	42	312	NA	adjacent	non-adjacent	7_5	adjacent/non-adjacent	dependency
4	7	8	1	1105	4.jpg	44	314	0	none	none	7_5	none/none	none
4	7	9	1	1074	3.jpg	45	315	0	non-adjacent	none	7_5	non-adjacent/none	dependency
5	1	1	1	2643	4.jpg	1	1	0	none	none	1_1	none/none	none
5	1	2	1	1482	11.jpg	2	2	0	none	non-adjacent	1_1	none/non-adjacent	NA
5	1	3	1	1506	8.jpg	3	3	1	none	none	1_1	none/none	none
5	1	4	1	1410	7.jpg	4	4	0	none	none	1_1	none/none	none
5	1	5	1	1002	12.jpg	5	5	0	non-adjacent	none	1_1	non-adjacent/none	dependency
5	1	6	1	1866	2.jpg	6	6	0	none	none	1_1	none/none	none
5	1	7	1	1291	10.jpg	7	7	0	none	adjacent	1_1	none/adjacent	NA
5	1	8	1	1210	3.jpg	8	8	NA	adjacent	none	1_1	adjacent/none	dependency
5	1	1	1	1698	8.jpg	10	10	0	none	none	1_2	none/none	none
5	1	2	1	1083	11.jpg	11	11	0	none	non-adjacent	1_2	none/non-adjacent	NA
5	1	3	1	1261	2.jpg	12	12	1	none	none	1_2	none/none	none
5	1	4	1	2521	7.jpg	13	13	0	none	none	1_2	none/none	none
5	1	5	1	2643	4.jpg	14	14	0	non-adjacent	none	1_2	non-adjacent/none	dependency
5	1	7	0	1123	10.jpg	16	16	0	none	adjacent	1_2	none/adjacent	NA
5	1	8	1	2083	3.jpg	17	17	NA	adjacent	none	1_2	adjacent/none	dependency
5	1	9	1	1139	12.jpg	18	18	0	none	none	1_2	none/none	none
5	1	1	1	1112	2.jpg	19	19	0	none	none	1_3	none/none	none
5	1	2	1	1003	11.jpg	20	20	0	none	non-adjacent	1_3	none/non-adjacent	NA
5	1	4	1	859	7.jpg	22	22	0	none	none	1_3	none/none	none
5	1	5	1	939	8.jpg	23	23	0	non-adjacent	none	1_3	non-adjacent/none	dependency
5	1	6	1	1427	12.jpg	24	24	0	none	none	1_3	none/none	none
5	1	7	1	1116	10.jpg	25	25	0	none	adjacent	1_3	none/adjacent	NA
5	1	8	1	1027	3.jpg	26	26	NA	adjacent	none	1_3	adjacent/none	dependency
5	1	9	1	2179	4.jpg	27	27	0	none	none	1_3	none/none	none
5	1	2	1	827	11.jpg	29	29	0	none	non-adjacent	1_4	none/non-adjacent	NA
5	1	3	1	899	12.jpg	30	30	1	none	none	1_4	none/none	none
5	1	4	1	947	7.jpg	31	31	0	none	none	1_4	none/none	none
5	1	5	1	1315	2.jpg	32	32	0	non-adjacent	none	1_4	non-adjacent/none	dependency
5	1	6	1	1067	4.jpg	33	33	0	none	none	1_4	none/none	none
5	1	7	1	1003	10.jpg	34	34	0	none	adjacent	1_4	none/adjacent	NA
5	1	8	1	1116	3.jpg	35	35	NA	adjacent	none	1_4	adjacent/none	dependency
5	1	9	1	842	8.jpg	36	36	0	none	none	1_4	none/none	none
5	1	1	1	837	12.jpg	37	37	0	none	none	1_5	none/none	none
5	1	2	1	707	11.jpg	38	38	0	none	non-adjacent	1_5	none/non-adjacent	NA
5	1	3	1	1451	4.jpg	39	39	1	none	none	1_5	none/none	none
5	1	4	1	795	7.jpg	40	40	0	none	none	1_5	none/none	none
5	1	6	1	900	8.jpg	42	42	0	none	none	1_5	none/none	none
5	1	7	1	1235	10.jpg	43	43	0	none	adjacent	1_5	none/adjacent	NA
5	1	8	1	1059	3.jpg	44	44	NA	adjacent	none	1_5	adjacent/none	dependency
5	1	9	1	811	2.jpg	45	45	0	none	none	1_5	none/none	none
5	2	1	1	2769	4.jpg	1	46	0	none	none	2_1	none/none	none
5	2	3	1	1043	10.jpg	3	48	0	none	adjacent	2_1	none/adjacent	NA
5	2	4	1	1067	3.jpg	4	49	NA	adjacent	none	2_1	adjacent/none	dependency
5	2	5	1	1035	8.jpg	5	50	0	none	none	2_1	none/none	none
5	2	6	1	803	11.jpg	6	51	0	none	non-adjacent	2_1	none/non-adjacent	NA
5	2	7	1	1091	12.jpg	7	52	1	none	none	2_1	none/none	none
5	2	8	1	811	7.jpg	8	53	0	none	none	2_1	none/none	none
5	2	9	1	1323	2.jpg	9	54	0	non-adjacent	none	2_1	non-adjacent/none	dependency
5	2	1	1	803	12.jpg	10	55	0	none	none	2_2	none/none	none
5	2	2	1	763	2.jpg	11	56	0	none	none	2_2	none/none	none
5	2	3	1	788	10.jpg	12	57	0	none	adjacent	2_2	none/adjacent	NA
5	2	4	1	890	3.jpg	13	58	NA	adjacent	none	2_2	adjacent/none	dependency
5	2	5	1	1578	4.jpg	14	59	0	none	none	2_2	none/none	none
5	2	6	1	787	11.jpg	15	60	0	none	non-adjacent	2_2	none/non-adjacent	NA
5	2	8	1	804	7.jpg	17	62	0	none	none	2_2	none/none	none
5	2	9	1	859	8.jpg	18	63	0	non-adjacent	none	2_2	non-adjacent/none	dependency
5	2	2	1	1083	8.jpg	20	65	0	none	none	2_3	none/none	none
5	2	3	1	1035	10.jpg	21	66	0	none	adjacent	2_3	none/adjacent	NA
5	2	4	1	883	3.jpg	22	67	NA	adjacent	none	2_3	adjacent/none	dependency
5	2	5	1	899	12.jpg	23	68	0	none	none	2_3	none/none	none
5	2	6	1	851	11.jpg	24	69	0	none	non-adjacent	2_3	none/non-adjacent	NA
5	2	7	1	787	2.jpg	25	70	1	none	none	2_3	none/none	none
5	2	8	1	947	7.jpg	26	71	0	none	none	2_3	none/none	none
5	2	9	1	835	4.jpg	27	72	0	non-adjacent	none	2_3	non-adjacent/none	dependency
5	2	1	1	1036	8.jpg	28	73	0	none	none	2_4	none/none	none
5	2	2	1	817	12.jpg	29	74	0	none	none	2_4	none/none	none
5	2	3	1	2010	10.jpg	30	75	0	none	adjacent	2_4	none/adjacent	NA
5	2	4	1	994	3.jpg	31	76	NA	adjacent	none	2_4	adjacent/none	dependency
5	2	5	1	706	2.jpg	32	77	0	none	none	2_4	none/none	none
5	2	6	1	938	11.jpg	33	78	0	none	non-adjacent	2_4	none/non-adjacent	NA
5	2	7	1	1066	4.jpg	34	79	1	none	none	2_4	none/none	none
5	2	8	1	810	7.jpg	35	80	0	none	none	2_4	none/none	none
5	2	1	1	651	2.jpg	37	82	0	none	none	2_5	none/none	none
5	2	2	1	3315	4.jpg	38	83	0	none	none	2_5	none/none	none
5	2	3	1	1329	10.jpg	39	84	0	none	adjacent	2_5	none/adjacent	NA
5	2	4	1	1082	3.jpg	40	85	NA	adjacent	none	2_5	adjacent/none	dependency
5	2	6	1	963	11.jpg	42	87	0	none	non-adjacent	2_5	none/non-adjacent	NA
5	2	7	1	874	8.jpg	43	88	1	none	none	2_5	none/none	none
5	2	8	1	849	7.jpg	44	89	0	none	none	2_5	none/none	none
5	2	9	1	722	12.jpg	45	90	0	non-adjacent	none	2_5	non-adjacent/none	dependency
5	3	1	1	741	8.jpg	1	91	0	none	none	3_1	none/none	none
5	3	2	1	860	11.jpg	2	92	0	none	non-adjacent	3_1	none/non-adjacent	NA
5	3	3	1	923	12.jpg	3	93	1	none	none	3_1	none/none	none
5	3	4	1	827	7.jpg	4	94	0	none	none	3_1	none/none	none
5	3	5	1	706	2.jpg	5	95	0	non-adjacent	none	3_1	non-adjacent/none	dependency
5	3	6	1	3292	4.jpg	6	96	0	none	none	3_1	none/none	none
5	3	7	1	914	10.jpg	7	97	0	none	adjacent	3_1	none/adjacent	NA
5	3	8	1	979	3.jpg	8	98	NA	adjacent	none	3_1	adjacent/none	dependency
5	3	1	1	751	2.jpg	10	100	0	none	none	3_2	none/none	none
5	3	2	1	778	11.jpg	11	101	0	none	non-adjacent	3_2	none/non-adjacent	NA
5	3	3	1	1140	4.jpg	12	102	1	none	none	3_2	none/none	none
5	3	4	1	730	7.jpg	13	103	0	none	none	3_2	none/none	none
5	3	6	1	1115	8.jpg	15	105	0	none	none	3_2	none/none	none
5	3	7	1	1051	10.jpg	16	106	0	none	adjacent	3_2	none/adjacent	NA
5	3	8	1	1388	3.jpg	17	107	NA	adjacent	none	3_2	adjacent/none	dependency
5	3	9	1	714	12.jpg	18	108	0	none	none	3_2	none/none	none
5	3	1	1	2358	4.jpg	19	109	0	none	none	3_3	none/none	none
5	3	2	1	698	11.jpg	20	110	0	none	non-adjacent	3_3	none/non-adjacent	NA
5	3	4	1	819	7.jpg	22	112	0	none	none	3_3	none/none	none
5	3	5	1	1099	8.jpg	23	113	0	non-adjacent	none	3_3	non-adjacent/none	dependency
5	3	6	1	1203	12.jpg	24	114	0	none	none	3_3	none/none	none
5	3	7	1	955	10.jpg	25	115	0	none	adjacent	3_3	none/adjacent	NA
5	3	8	1	883	3.jpg	26	116	NA	adjacent	none	3_3	adjacent/none	dependency
5	3	9	1	723	2.jpg	27	117	0	none	none	3_3	none/none	none
5	3	1	1	961	12.jpg	28	118	0	none	none	3_4	none/none	none
5	3	2	1	908	11.jpg	29	119	0	none	non-adjacent	3_4	none/non-adjacent	NA
5	3	3	1	1011	2.jpg	30	120	1	none	none	3_4	none/none	none
5	3	4	1	923	7.jpg	31	121	0	none	none	3_4	none/none	none
5	3	5	1	1386	4.jpg	32	122	0	non-adjacent	none	3_4	non-adjacent/none	dependency
5	3	7	1	780	10.jpg	34	124	0	none	adjacent	3_4	none/adjacent	NA
5	3	8	1	850	3.jpg	35	125	NA	adjacent	none	3_4	adjacent/none	dependency
5	3	9	1	1252	8.jpg	36	126	0	none	none	3_4	none/none	none
5	3	2	1	867	11.jpg	38	128	0	none	non-adjacent	3_5	none/non-adjacent	NA
5	3	3	1	875	8.jpg	39	129	1	none	none	3_5	none/none	none
5	3	4	1	883	7.jpg	40	130	0	none	none	3_5	none/none	none
5	3	5	1	796	12.jpg	41	131	0	non-adjacent	none	3_5	non-adjacent/none	dependency
5	3	6	1	915	2.jpg	42	132	0	none	none	3_5	none/none	none
5	3	7	1	1242	10.jpg	43	133	0	none	adjacent	3_5	none/adjacent	NA
5	3	8	1	1315	3.jpg	44	134	NA	adjacent	none	3_5	adjacent/none	dependency
5	3	9	1	2484	4.jpg	45	135	0	none	none	3_5	none/none	none
5	4	1	1	1032	12.jpg	1	136	0	none	none	4_1	none/none	none
5	4	2	1	777	8.jpg	2	137	0	none	none	4_1	none/none	none
5	4	3	1	1010	10.jpg	3	138	0	none	adjacent	4_1	none/adjacent	NA
5	4	4	1	842	3.jpg	4	139	NA	adjacent	none	4_1	adjacent/none	dependency
5	4	5	1	1114	4.jpg	5	140	0	none	none	4_1	none/none	none
5	4	6	1	1114	11.jpg	6	141	0	none	non-adjacent	4_1	none/non-adjacent	NA
5	4	8	1	898	7.jpg	8	143	0	none	none	4_1	none/none	none
5	4	9	1	754	2.jpg	9	144	0	non-adjacent	none	4_1	non-adjacent/none	dependency
5	4	1	1	739	8.jpg	10	145	0	none	none	4_2	none/none	none
5	4	3	1	1211	10.jpg	12	147	0	none	adjacent	4_2	none/adjacent	NA
5	4	4	1	898	3.jpg	13	148	NA	adjacent	none	4_2	adjacent/none	dependency
5	4	5	1	753	2.jpg	14	149	0	none	none	4_2	none/none	none
5	4	6	1	930	11.jpg	15	150	0	none	non-adjacent	4_2	none/non-adjacent	NA
5	4	7	1	954	4.jpg	16	151	1	none	none	4_2	none/none	none
5	4	8	1	794	7.jpg	17	152	0	none	none	4_2	none/none	none
5	4	9	1	738	12.jpg	18	153	0	non-adjacent	none	4_2	non-adjacent/none	dependency
5	4	1	1	1672	4.jpg	19	154	0	none	none	4_3	none/none	none
5	4	2	1	778	2.jpg	20	155	0	none	none	4_3	none/none	none
5	4	3	1	1146	10.jpg	21	156	0	none	adjacent	4_3	none/adjacent	NA
5	4	4	1	898	3.jpg	22	157	NA	adjacent	none	4_3	adjacent/none	dependency
5	4	5	1	1283	8.jpg	23	158	0	none	none	4_3	none/none	none
5	4	6	1	819	11.jpg	24	159	0	none	non-adjacent	4_3	none/non-adjacent	NA
5	4	7	1	1243	12.jpg	25	160	1	none	none	4_3	none/none	none
5	4	8	1	1043	7.jpg	26	161	0	none	none	4_3	none/none	none
5	4	1	1	756	2.jpg	28	163	0	none	none	4_4	none/none	none
5	4	2	0	898	12.jpg	29	164	0	none	none	4_4	none/none	none
5	4	3	1	1683	10.jpg	30	165	0	none	adjacent	4_4	none/adjacent	NA
5	4	4	1	819	3.jpg	31	166	NA	adjacent	none	4_4	adjacent/none	dependency
5	4	6	1	738	11.jpg	33	168	0	none	non-adjacent	4_4	none/non-adjacent	NA
5	4	7	1	1028	8.jpg	34	169	1	none	none	4_4	none/none	none
5	4	8	1	1754	7.jpg	35	170	0	none	none	4_4	none/none	none
5	4	9	1	3131	4.jpg	36	171	0	non-adjacent	none	4_4	non-adjacent/none	dependency
5	4	2	1	811	4.jpg	38	173	0	none	none	4_5	none/none	none
5	4	3	1	995	10.jpg	39	174	0	none	adjacent	4_5	none/adjacent	NA
5	4	4	1	804	3.jpg	40	175	NA	adjacent	none	4_5	adjacent/none	dependency
5	4	5	1	1578	12.jpg	41	176	0	none	none	4_5	none/none	none
5	4	6	1	1139	11.jpg	42	177	0	none	non-adjacent	4_5	none/non-adjacent	NA
5	4	7	1	667	2.jpg	43	178	1	none	none	4_5	none/none	none
5	4	8	1	779	7.jpg	44	179	0	none	none	4_5	none/none	none
5	4	9	1	812	8.jpg	45	180	0	non-adjacent	none	4_5	non-adjacent/none	dependency
5	5	1	1	1258	12.jpg	1	181	0	none	none	5_1	none/none	none
5	5	2	1	708	11.jpg	2	182	0	none	non-adjacent	5_1	none/non-adjacent	NA
5	5	3	1	939	8.jpg	3	183	1	none	none	5_1	none/none	none
5	5	4	1	986	7.jpg	4	184	0	none	none	5_1	none/none	none
5	5	5	1	2714	4.jpg	5	185	0	non-adjacent	none	5_1	non-adjacent/none	dependency
5	5	7	1	3867	10.jpg	7	187	0	none	adjacent	5_1	none/adjacent	NA
5	5	8	1	915	3.jpg	8	188	NA	adjacent	none	5_1	adjacent/none	dependency
5	5	9	1	1371	2.jpg	9	189	0	none	none	5_1	none/none	none
5	5	2	1	738	11.jpg	11	191	0	none	non-adjacent	5_2	none/non-adjacent	NA
5	5	3	1	4049	4.jpg	12	192	1	none	none	5_2	none/none	none
5	5	4	1	754	7.jpg	13	193	0	none	none	5_2	none/none	none
5	5	5	1	1170	12.jpg	14	194	0	non-adjacent	none	5_2	non-adjacent/none	dependency
5	5	6	1	1051	2.jpg	15	195	0	none	none	5_2	none/none	none
5	5	7	1	858	10.jpg	16	196	0	none	adjacent	5_2	none/adjacent	NA
5	5	8	1	770	3.jpg	17	197	NA	adjacent	none	5_2	adjacent/none	dependency
5	5	9	1	834	8.jpg	18	198	0	none	none	5_2	none/none	none
5	5	1	1	773	2.jpg	19	199	0	none	none	5_3	none/none	none
5	5	2	1	681	11.jpg	20	200	0	none	non-adjacent	5_3	none/non-adjacent	NA
5	5	3	1	786	12.jpg	21	201	1	none	none	5_3	none/none	none
5	5	4	1	802	7.jpg	22	202	0	none	none	5_3	none/none	none
5	5	6	1	1107	8.jpg	24	204	0	none	none	5_3	none/none	none
5	5	7	1	1537	10.jpg	25	205	0	none	adjacent	5_3	none/adjacent	NA
5	5	8	1	1066	3.jpg	26	206	NA	adjacent	none	5_3	adjacent/none	dependency
5	5	9	1	1491	4.jpg	27	207	0	none	none	5_3	none/none	none
5	5	1	1	1054	4.jpg	28	208	0	none	none	5_4	none/none	none
5	5	2	1	850	11.jpg	29	209	0	none	non-adjacent	5_4	none/non-adjacent	NA
5	5	3	1	1777	2.jpg	30	210	1	none	none	5_4	none/none	none
5	5	4	1	1427	7.jpg	31	211	0	none	none	5_4	none/none	none
5	5	5	1	753	8.jpg	32	212	0	non-adjacent	none	5_4	non-adjacent/none	dependency
5	5	6	1	2244	12.jpg	33	213	0	none	none	5_4	none/none	none
5	5	7	1	1410	10.jpg	34	214	0	none	adjacent	5_4	none/adjacent	NA
5	5	8	1	899	3.jpg	35	215	NA	adjacent	none	5_4	adjacent/none	dependency
5	5	1	1	1369	8.jpg	37	217	0	none	none	5_5	none/none	none
5	5	2	1	1323	11.jpg	38	218	0	none	non-adjacent	5_5	none/non-adjacent	NA
5	5	4	1	1091	7.jpg	40	220	0	none	none	5_5	none/none	none
5	5	5	1	1107	2.jpg	41	221	0	non-adjacent	none	5_5	non-adjacent/none	dependency
5	5	6	1	1635	4.jpg	42	222	0	none	none	5_5	none/none	none
5	5	7	1	1963	10.jpg	43	223	0	none	adjacent	5_5	none/adjacent	NA
5	5	8	1	883	3.jpg	44	224	NA	adjacent	none	5_5	adjacent/none	dependency
5	5	9	1	867	12.jpg	45	225	0	none	none	5_5	none/none	none
5	6	1	1	789	2.jpg	1	226	0	none	none	6_1	none/none	none
5	6	2	1	1044	8.jpg	2	227	0	none	none	6_1	none/none	none
5	6	3	1	1674	10.jpg	3	228	0	none	adjacent	6_1	none/adjacent	NA
5	6	4	1	1251	3.jpg	4	229	NA	adjacent	none	6_1	adjacent/none	dependency
5	6	5	1	1060	4.jpg	5	230	0	none	none	6_1	none/none	none
5	6	6	1	842	11.jpg	6	231	0	none	non-adjacent	6_1	none/non-adjacent	NA
5	6	8	1	1051	7.jpg	8	233	0	none	none	6_1	none/none	none
5	6	9	1	891	12.jpg	9	234	0	non-adjacent	none	6_1	non-adjacent/none	dependency
5	6	2	1	1323	2.jpg	11	236	0	none	none	6_2	none/none	none
5	6	3	1	923	10.jpg	12	237	0	none	adjacent	6_2	none/adjacent	NA
5	6	4	1	1251	3.jpg	13	238	NA	adjacent	none	6_2	adjacent/none	dependency
5	6	5	1	979	8.jpg	14	239	0	none	none	6_2	none/none	none
5	6	6	1	1171	11.jpg	15	240	0	none	non-adjacent	6_2	none/non-adjacent	NA
5	6	7	1	1124	12.jpg	16	241	1	none	none	6_2	none/none	none
5	6	8	1	850	7.jpg	17	242	0	none	none	6_2	none/none	none
5	6	9	1	4643	4.jpg	18	243	0	non-adjacent	none	6_2	non-adjacent/none	dependency
5	6	1	1	711	8.jpg	19	244	0	none	none	6_3	none/none	none
5	6	2	1	955	4.jpg	20	245	0	none	none	6_3	none/none	none
5	6	3	1	2626	10.jpg	21	246	0	none	adjacent	6_3	none/adjacent	NA
5	6	4	1	1723	3.jpg	22	247	NA	adjacent	none	6_3	adjacent/none	dependency
5	6	5	1	1795	12.jpg	23	248	0	none	none	6_3	none/none	none
5	6	6	1	764	11.jpg	24	249	0	none	non-adjacent	6_3	none/non-adjacent	NA
5	6	7	1	738	2.jpg	25	250	1	none	none	6_3	none/none	none
5	6	8	1	707	7.jpg	26	251	0	none	none	6_3	none/none	none
5	6	1	1	746	4.jpg	28	253	0	none	none	6_4	none/none	none
5	6	2	1	667	12.jpg	29	254	0	none	none	6_4	none/none	none
5	6	3	1	867	10.jpg	30	255	0	none	adjacent	6_4	none/adjacent	NA
5	6	4	1	756	3.jpg	31	256	NA	adjacent	none	6_4	adjacent/none	dependency
5	6	6	1	834	11.jpg	33	258	0	none	non-adjacent	6_4	none/non-adjacent	NA
5	6	7	1	1260	8.jpg	34	259	1	none	none	6_4	none/none	none
5	6	8	1	1021	7.jpg	35	260	0	none	none	6_4	none/none	none
5	6	9	1	776	2.jpg	36	261	0	non-adjacent	none	6_4	non-adjacent/none	dependency
5	6	1	1	1273	12.jpg	37	262	0	none	none	6_5	none/none	none
5	6	3	1	1249	10.jpg	39	264	0	none	adjacent	6_5	none/adjacent	NA
5	6	4	1	940	3.jpg	40	265	NA	adjacent	none	6_5	adjacent/none	dependency
5	6	5	1	956	2.jpg	41	266	0	none	none	6_5	none/none	none
5	6	6	1	995	11.jpg	42	267	0	none	non-adjacent	6_5	none/non-adjacent	NA
5	6	7	1	1578	4.jpg	43	268	1	none	none	6_5	none/none	none
5	6	8	1	995	7.jpg	44	269	0	none	none	6_5	none/none	none
5	6	9	1	739	8.jpg	45	270	0	non-adjacent	none	6_5	non-adjacent/none	dependency
5	7	1	1	932	8.jpg	1	271	0	none	none	7_1	none/none	none
5	7	2	1	1763	4.jpg	2	272	0	none	none	7_1	none/none	none
5	7	3	1	857	10.jpg	3	273	0	none	adjacent	7_1	none/adjacent	NA
5	7	5	1	834	2.jpg	5	275	0	none	none	7_1	none/none	none
5	7	6	1	1026	12.jpg	6	276	0	none	none	7_1	none/none	none
5	7	7	1	770	3.jpg	7	277	0	none	none	7_1	none/none	none
5	7	8	1	3427	7.jpg	8	278	0	none	none	7_1	none/none	none
5	7	9	1	1106	11.jpg	9	279	0	none	non-adjacent	7_1	none/non-adjacent	NA
5	7	1	1	1471	4.jpg	10	280	1	none	none	7_2	none/none	none
5	7	3	1	739	2.jpg	12	282	0	non-adjacent	none	7_2	non-adjacent/none	dependency
5	7	4	1	858	12.jpg	13	283	0	none	none	7_2	none/none	none
5	7	5	1	1202	8.jpg	14	284	0	none	none	7_2	none/none	none
5	7	6	1	1034	3.jpg	15	285	0	none	none	7_2	none/none	none
5	7	7	1	1675	7.jpg	16	286	0	none	none	7_2	none/none	none
5	7	8	1	1562	11.jpg	17	287	0	none	non-adjacent	7_2	none/non-adjacent	NA
5	7	9	1	1411	10.jpg	18	288	1	none	adjacent	7_2	none/adjacent	NA
5	7	1	1	933	12.jpg	19	289	NA	adjacent	none	7_3	adjacent/none	dependency
5	7	2	1	898	3.jpg	20	290	0	non-adjacent	none	7_3	non-adjacent/none	dependency
5	7	4	1	843	11.jpg	22	292	0	none	non-adjacent	7_3	none/non-adjacent	NA
5	7	5	1	852	4.jpg	23	293	1	none	none	7_3	none/none	none
5	7	6	1	1194	10.jpg	24	294	0	none	adjacent	7_3	none/adjacent	NA
5	7	7	1	1291	2.jpg	25	295	NA	both	none	7_3	both/none	dependency
5	7	8	1	923	8.jpg	26	296	0	none	none	7_3	none/none	none
5	7	9	1	843	7.jpg	27	297	0	none	none	7_3	none/none	none
5	7	2	1	1369	11.jpg	29	299	0	none	non-adjacent	7_4	none/non-adjacent	NA
5	7	3	1	1266	7.jpg	30	300	1	none	none	7_4	none/none	none
5	7	4	1	947	10.jpg	31	301	0	none	adjacent	7_4	none/adjacent	NA
5	7	5	1	979	12.jpg	32	302	NA	both	none	7_4	both/none	dependency
5	7	6	1	1091	2.jpg	33	303	0	none	none	7_4	none/none	none
5	7	7	1	995	8.jpg	34	304	0	none	none	7_4	none/none	none
5	7	8	1	1163	3.jpg	35	305	0	none	none	7_4	none/none	none
5	7	9	1	1370	4.jpg	36	306	0	none	none	7_4	none/none	none
5	7	1	1	796	10.jpg	37	307	0	none	adjacent	7_5	none/adjacent	NA
5	7	2	1	874	8.jpg	38	308	NA	adjacent	none	7_5	adjacent/none	dependency
5	7	3	1	1539	3.jpg	39	309	0	none	none	7_5	none/none	none
5	7	4	1	660	7.jpg	40	310	0	none	none	7_5	none/none	none
5	7	5	1	995	11.jpg	41	311	0	none	non-adjacent	7_5	none/non-adjacent	NA
5	7	7	1	1164	4.jpg	43	313	0	none	none	7_5	none/none	none
5	7	8	1	826	2.jpg	44	314	0	non-adjacent	none	7_5	non-adjacent/none	dependency
5	7	9	1	1252	12.jpg	45	315	0	none	none	7_5	none/none	none
6	1	1	1	2736	12.jpg	1	1	0	none	none	1_1	none/none	none
6	1	2	1	1505	2.jpg	2	2	0	none	none	1_1	none/none	none
6	1	3	1	938	10.jpg	3	3	0	none	adjacent	1_1	none/adjacent	NA
6	1	4	1	1362	3.jpg	4	4	NA	adjacent	none	1_1	adjacent/none	dependency
6	1	5	1	1646	4.jpg	5	5	0	none	none	1_1	none/none	none
6	1	6	1	1227	11.jpg	6	6	0	none	non-adjacent	1_1	none/non-adjacent	NA
6	1	8	1	1102	7.jpg	8	8	0	none	none	1_1	none/none	none
6	1	9	1	2957	8.jpg	9	9	0	non-adjacent	none	1_1	non-adjacent/none	dependency
6	1	1	1	793	8.jpg	10	10	0	none	none	1_2	none/none	none
6	1	2	1	906	12.jpg	11	11	0	none	none	1_2	none/none	none
6	1	3	1	937	10.jpg	12	12	0	none	adjacent	1_2	none/adjacent	NA
6	1	4	1	939	3.jpg	13	13	NA	adjacent	none	1_2	adjacent/none	dependency
6	1	5	1	1033	2.jpg	14	14	0	none	none	1_2	none/none	none
6	1	6	1	1129	11.jpg	15	15	0	none	non-adjacent	1_2	none/non-adjacent	NA
6	1	7	1	1850	4.jpg	16	16	1	none	none	1_2	none/none	none
6	1	8	1	1480	7.jpg	17	17	0	none	none	1_2	none/none	none
6	1	2	1	2352	8.jpg	20	20	0	none	none	1_3	none/none	none
6	1	3	0	1505	10.jpg	21	21	0	none	adjacent	1_3	none/adjacent	NA
6	1	4	1	1537	3.jpg	22	22	NA	adjacent	none	1_3	adjacent/none	dependency
6	1	5	1	882	12.jpg	23	23	0	none	none	1_3	none/none	none
6	1	6	1	1475	11.jpg	24	24	0	none	non-adjacent	1_3	none/non-adjacent	NA
6	1	7	1	1400	2.jpg	25	25	1	none	none	1_3	none/none	none
6	1	8	1	1210	7.jpg	26	26	0	none	none	1_3	none/none	none
6	1	9	1	1729	4.jpg	27	27	0	non-adjacent	none	1_3	non-adjacent/none	dependency
6	1	1	1	860	4.jpg	28	28	0	none	none	1_4	none/none	none
6	1	3	1	866	10.jpg	30	30	0	none	adjacent	1_4	none/adjacent	NA
6	1	4	1	2510	3.jpg	31	31	NA	adjacent	none	1_4	adjacent/none	dependency
6	1	5	0	1034	8.jpg	32	32	0	none	none	1_4	none/none	none
6	1	6	1	3309	11.jpg	33	33	0	none	non-adjacent	1_4	none/non-adjacent	NA
6	1	7	1	994	12.jpg	34	34	1	none	none	1_4	none/none	none
6	1	8	1	2327	7.jpg	35	35	0	none	none	1_4	none/none	none
6	1	9	1	2103	2.jpg	36	36	0	non-adjacent	none	1_4	non-adjacent/none	dependency
6	1	1	1	730	2.jpg	37	37	0	none	none	1_5	none/none	none
6	1	2	1	1073	4.jpg	38	38	0	none	none	1_5	none/none	none
6	1	3	0	1480	10.jpg	39	39	0	none	adjacent	1_5	none/adjacent	NA
6	1	4	1	2830	3.jpg	40	40	NA	adjacent	none	1_5	adjacent/none	dependency
6	1	6	1	1133	11.jpg	42	42	0	none	non-adjacent	1_5	none/non-adjacent	NA
6	1	7	1	770	8.jpg	43	43	1	none	none	1_5	none/none	none
6	1	8	1	1034	7.jpg	44	44	0	none	none	1_5	none/none	none
6	1	9	1	778	12.jpg	45	45	0	non-adjacent	none	1_5	non-adjacent/none	dependency
6	2	1	1	755	12.jpg	1	46	0	none	none	2_1	none/none	none
6	2	2	1	1345	11.jpg	2	47	0	none	non-adjacent	2_1	none/non-adjacent	NA
6	2	3	1	1249	4.jpg	3	48	1	none	none	2_1	none/none	none
6	2	4	1	1273	7.jpg	4	49	0	none	none	2_1	none/none	none
6	2	6	1	1019	8.jpg	6	51	0	none	none	2_1	none/none	none
6	2	7	1	906	10.jpg	7	52	0	none	adjacent	2_1	none/adjacent	NA
6	2	8	1	1295	3.jpg	8	53	NA	adjacent	none	2_1	adjacent/none	dependency
6	2	9	1	849	2.jpg	9	54	0	none	none	2_1	none/none	none
6	2	1	1	1332	4.jpg	10	55	0	none	none	2_2	none/none	none
6	2	2	1	1409	11.jpg	11	56	0	none	non-adjacent	2_2	none/non-adjacent	NA
6	2	3	1	833	8.jpg	12	57	1	none	none	2_2	none/none	none
6	2	4	1	1520	7.jpg	13	58	0	none	none	2_2	none/none	none
6	2	5	1	1857	12.jpg	14	59	0	non-adjacent	none	2_2	non-adjacent/none	dependency
6	2	6	1	1209	2.jpg	15	60	0	none	none	2_2	none/none	none
6	2	7	1	1225	10.jpg	16	61	0	none	adjacent	2_2	none/adjacent	NA
6	2	8	1	795	3.jpg	17	62	NA	adjacent	none	2_2	adjacent/none	dependency
6	2	1	1	787	2.jpg	19	64	0	none	none	2_3	none/none	none
6	2	2	1	1777	11.jpg	20	65	0	none	non-adjacent	2_3	none/non-adjacent	NA
6	2	4	1	1593	7.jpg	22	67	0	none	none	2_3	none/none	none
6	2	5	1	1106	8.jpg	23	68	0	non-adjacent	none	2_3	non-adjacent/none	dependency
6	2	6	1	1002	12.jpg	24	69	0	none	none	2_3	none/none	none
6	2	7	1	2263	10.jpg	25	70	0	none	adjacent	2_3	none/adjacent	NA
6	2	8	1	1848	3.jpg	26	71	NA	adjacent	none	2_3	adjacent/none	dependency
6	2	9	1	770	4.jpg	27	72	0	none	none	2_3	none/none	none
6	2	2	1	882	11.jpg	29	74	0	none	non-adjacent	2_4	none/non-adjacent	NA
6	2	3	1	1297	12.jpg	30	75	1	none	none	2_4	none/none	none
6	2	4	1	770	7.jpg	31	76	0	none	none	2_4	none/none	none
6	2	5	1	1010	2.jpg	32	77	0	non-adjacent	none	2_4	non-adjacent/none	dependency
6	2	6	1	906	4.jpg	33	78	0	none	none	2_4	none/none	none
6	2	7	1	1157	10.jpg	34	79	0	none	adjacent	2_4	none/adjacent	NA
6	2	8	1	1928	3.jpg	35	80	NA	adjacent	none	2_4	adjacent/none	dependency
6	2	9	1	746	8.jpg	36	81	0	none	none	2_4	none/none	none
6	2	1	1	657	8.jpg	37	82	0	none	none	2_5	none/none	none
6	2	2	1	1249	11.jpg	38	83	0	none	non-adjacent	2_5	none/non-adjacent	NA
6	2	3	1	753	2.jpg	39	84	1	none	none	2_5	none/none	none
6	2	4	1	1176	7.jpg	40	85	0	none	none	2_5	none/none	none
6	2	5	1	818	4.jpg	41	86	0	non-adjacent	none	2_5	non-adjacent/none	dependency
6	2	7	1	1033	10.jpg	43	88	0	none	adjacent	2_5	none/adjacent	NA
6	2	8	0	859	3.jpg	44	89	NA	adjacent	none	2_5	adjacent/none	dependency
6	2	9	1	2167	12.jpg	45	90	0	none	none	2_5	none/none	none
6	3	1	1	1159	8.jpg	1	91	0	none	none	3_1	none/none	none
6	3	3	1	777	10.jpg	3	93	0	none	adjacent	3_1	none/adjacent	NA
6	3	4	1	1201	3.jpg	4	94	NA	adjacent	none	3_1	adjacent/none	dependency
6	3	5	1	745	2.jpg	5	95	0	none	none	3_1	none/none	none
6	3	6	1	841	11.jpg	6	96	0	none	non-adjacent	3_1	none/non-adjacent	NA
6	3	7	1	906	4.jpg	7	97	1	none	none	3_1	none/none	none
6	3	8	1	812	7.jpg	8	98	0	none	none	3_1	none/none	none
6	3	9	1	890	12.jpg	9	99	0	non-adjacent	none	3_1	non-adjacent/none	dependency
6	3	2	1	930	4.jpg	11	101	0	none	none	3_2	none/none	none
6	3	3	1	898	10.jpg	12	102	0	none	adjacent	3_2	none/adjacent	NA
6	3	4	1	1067	3.jpg	13	103	NA	adjacent	none	3_2	adjacent/none	dependency
6	3	5	1	1329	12.jpg	14	104	0	none	none	3_2	none/none	none
6	3	6	1	1409	11.jpg	15	105	0	none	non-adjacent	3_2	none/non-adjacent	NA
6	3	7	0	1017	2.jpg	16	106	1	none	none	3_2	none/none	none
6	3	8	1	1944	7.jpg	17	107	0	none	none	3_2	none/none	none
6	3	9	1	1104	8.jpg	18	108	0	non-adjacent	none	3_2	non-adjacent/none	dependency
6	3	1	1	872	2.jpg	19	109	0	none	none	3_3	none/none	none
6	3	2	1	2103	12.jpg	20	110	0	none	none	3_3	none/none	none
6	3	3	1	1042	10.jpg	21	111	0	none	adjacent	3_3	none/adjacent	NA
6	3	4	1	1226	3.jpg	22	112	NA	adjacent	none	3_3	adjacent/none	dependency
6	3	6	1	949	11.jpg	24	114	0	none	non-adjacent	3_3	none/non-adjacent	NA
6	3	7	1	738	8.jpg	25	115	1	none	none	3_3	none/none	none
6	3	8	1	842	7.jpg	26	116	0	none	none	3_3	none/none	none
6	3	9	1	1242	4.jpg	27	117	0	non-adjacent	none	3_3	non-adjacent/none	dependency
6	3	1	1	781	4.jpg	28	118	0	none	none	3_4	none/none	none
6	3	2	1	977	2.jpg	29	119	0	none	none	3_4	none/none	none
6	3	3	1	2016	10.jpg	30	120	0	none	adjacent	3_4	none/adjacent	NA
6	3	4	0	801	3.jpg	31	121	NA	adjacent	none	3_4	adjacent/none	dependency
6	3	5	1	1537	8.jpg	32	122	0	none	none	3_4	none/none	none
6	3	6	1	937	11.jpg	33	123	0	none	non-adjacent	3_4	none/non-adjacent	NA
6	3	7	1	1649	12.jpg	34	124	1	none	none	3_4	none/none	none
6	3	8	1	3404	7.jpg	35	125	0	none	none	3_4	none/none	none
6	3	1	1	971	12.jpg	37	127	0	none	none	3_5	none/none	none
6	3	2	1	1958	8.jpg	38	128	0	none	none	3_5	none/none	none
6	3	3	1	2558	10.jpg	39	129	0	none	adjacent	3_5	none/adjacent	NA
6	3	4	1	1352	3.jpg	40	130	NA	adjacent	none	3_5	adjacent/none	dependency
6	3	5	1	922	4.jpg	41	131	0	none	none	3_5	none/none	none
6	3	6	1	1060	11.jpg	42	132	0	none	non-adjacent	3_5	none/non-adjacent	NA
6	3	8	1	1417	7.jpg	44	134	0	none	none	3_5	none/none	none
6	3	9	1	2288	2.jpg	45	135	0	non-adjacent	none	3_5	non-adjacent/none	dependency
6	4	1	1	928	12.jpg	1	136	0	none	none	4_1	none/none	none
6	4	2	1	3172	11.jpg	2	137	0	none	non-adjacent	4_1	none/non-adjacent	NA
6	4	3	1	785	2.jpg	3	138	1	none	none	4_1	none/none	none
6	4	4	1	1097	7.jpg	4	139	0	none	none	4_1	none/none	none
6	4	5	1	931	4.jpg	5	140	0	non-adjacent	none	4_1	non-adjacent/none	dependency
6	4	7	1	849	10.jpg	7	142	0	none	adjacent	4_1	none/adjacent	NA
6	4	8	1	1249	3.jpg	8	143	NA	adjacent	none	4_1	adjacent/none	dependency
6	4	9	1	857	8.jpg	9	144	0	none	none	4_1	none/none	none
6	4	1	1	1009	8.jpg	10	145	0	none	none	4_2	none/none	none
6	4	2	1	1801	11.jpg	11	146	0	none	non-adjacent	4_2	none/non-adjacent	NA
6	4	3	1	985	12.jpg	12	147	1	none	none	4_2	none/none	none
6	4	4	1	858	7.jpg	13	148	0	none	none	4_2	none/none	none
6	4	5	1	1105	2.jpg	14	149	0	non-adjacent	none	4_2	non-adjacent/none	dependency
6	4	6	1	1201	4.jpg	15	150	0	none	none	4_2	none/none	none
6	4	7	1	753	10.jpg	16	151	0	none	adjacent	4_2	none/adjacent	NA
6	4	8	1	1159	3.jpg	17	152	NA	adjacent	none	4_2	adjacent/none	dependency
6	4	1	1	1469	2.jpg	19	154	0	none	none	4_3	none/none	none
6	4	2	1	955	11.jpg	20	155	0	none	non-adjacent	4_3	none/non-adjacent	NA
6	4	3	1	993	4.jpg	21	156	1	none	none	4_3	none/none	none
6	4	4	1	1856	7.jpg	22	157	0	none	none	4_3	none/none	none
6	4	6	1	891	8.jpg	24	159	0	none	none	4_3	none/none	none
6	4	7	1	829	10.jpg	25	160	0	none	adjacent	4_3	none/adjacent	NA
6	4	8	1	1226	3.jpg	26	161	NA	adjacent	none	4_3	adjacent/none	dependency
6	4	9	1	928	12.jpg	27	162	0	none	none	4_3	none/none	none
6	4	2	1	811	11.jpg	29	164	0	none	non-adjacent	4_4	none/non-adjacent	NA
6	4	3	1	1000	8.jpg	30	165	1	none	none	4_4	none/none	none
6	4	4	1	2247	7.jpg	31	166	0	none	none	4_4	none/none	none
6	4	5	1	1185	12.jpg	32	167	0	non-adjacent	none	4_4	non-adjacent/none	dependency
6	4	6	1	1129	2.jpg	33	168	0	none	none	4_4	none/none	none
6	4	7	1	913	10.jpg	34	169	0	none	adjacent	4_4	none/adjacent	NA
6	4	8	1	1090	3.jpg	35	170	NA	adjacent	none	4_4	adjacent/none	dependency
6	4	9	1	882	4.jpg	36	171	0	none	none	4_4	none/none	none
6	4	1	1	1106	4.jpg	37	172	0	none	none	4_5	none/none	none
6	4	2	1	1313	11.jpg	38	173	0	none	non-adjacent	4_5	none/non-adjacent	NA
6	4	4	1	817	7.jpg	40	175	0	none	none	4_5	none/none	none
6	4	5	1	1446	8.jpg	41	176	0	non-adjacent	none	4_5	non-adjacent/none	dependency
6	4	6	1	812	12.jpg	42	177	0	none	none	4_5	none/none	none
6	4	7	1	2146	10.jpg	43	178	0	none	adjacent	4_5	none/adjacent	NA
6	4	8	1	1409	3.jpg	44	179	NA	adjacent	none	4_5	adjacent/none	dependency
6	4	9	1	1544	2.jpg	45	180	0	none	none	4_5	none/none	none
6	5	1	1	909	12.jpg	1	181	0	none	none	5_1	none/none	none
6	5	3	1	793	10.jpg	3	183	0	none	adjacent	5_1	none/adjacent	NA
6	5	4	1	1865	3.jpg	4	184	NA	adjacent	none	5_1	adjacent/none	dependency
6	5	5	1	785	2.jpg	5	185	0	none	none	5_1	none/none	none
6	5	6	1	1186	11.jpg	6	186	0	none	non-adjacent	5_1	none/non-adjacent	NA
6	5	7	1	1001	4.jpg	7	187	1	none	none	5_1	none/none	none
6	5	8	1	864	7.jpg	8	188	0	none	none	5_1	none/none	none
6	5	9	1	937	8.jpg	9	189	0	non-adjacent	none	5_1	non-adjacent/none	dependency
6	5	1	1	776	8.jpg	10	190	0	none	none	5_2	none/none	none
6	5	2	0	937	4.jpg	11	191	0	none	none	5_2	none/none	none
6	5	3	1	1385	10.jpg	12	192	0	none	adjacent	5_2	none/adjacent	NA
6	5	4	1	1098	3.jpg	13	193	NA	adjacent	none	5_2	adjacent/none	dependency
6	5	5	1	962	12.jpg	14	194	0	none	none	5_2	none/none	none
6	5	6	1	1234	11.jpg	15	195	0	none	non-adjacent	5_2	none/non-adjacent	NA
6	5	7	1	2628	2.jpg	16	196	1	none	none	5_2	none/none	none
6	5	8	1	2335	7.jpg	17	197	0	none	none	5_2	none/none	none
6	5	1	1	2000	2.jpg	19	199	0	none	none	5_3	none/none	none
6	5	2	1	834	8.jpg	20	200	0	none	none	5_3	none/none	none
6	5	3	1	1305	10.jpg	21	201	0	none	adjacent	5_3	none/adjacent	NA
6	5	4	1	1295	3.jpg	22	202	NA	adjacent	none	5_3	adjacent/none	dependency
6	5	5	1	2397	4.jpg	23	203	0	none	none	5_3	none/none	none
6	5	6	1	1130	11.jpg	24	204	0	none	non-adjacent	5_3	none/non-adjacent	NA
6	5	8	1	1263	7.jpg	26	206	0	none	none	5_3	none/none	none
6	5	9	1	850	12.jpg	27	207	0	non-adjacent	none	5_3	non-adjacent/none	dependency
6	5	2	1	1033	2.jpg	29	209	0	none	none	5_4	none/none	none
6	5	3	1	777	10.jpg	30	210	0	none	adjacent	5_4	none/adjacent	NA
6	5	4	1	1266	3.jpg	31	211	NA	adjacent	none	5_4	adjacent/none	dependency
