row_id,trial_in_subblock,rt,acc,subj,stim,block,trial_in_block,trial_in_exp,mid,dependency,antecedent,trial,cond,dependency2
1,1,2695,1,1,12,1,1,1,0,none,none,1_1,none/none,none
1,2,2275,1,1,11,1,2,2,0,none,nonadjacent,1_2,none/nonadjacent,NA
1,3,2522,1,1,8,1,3,3,1,none,none,1_3,none/none,none
1,4,2540,1,1,7,1,4,4,0,nonadjacent,none,1_4,nonadjacent/none,dependency
1,5,1827,1,1,4,1,5,5,0,none,none,1_5,none/none,none
1,7,1866,1,1,10,1,7,7,0,none,adjacent,1_7,none/adjacent,NA
1,8,1491,1,1,3,1,8,8,0,adjacent,none,1_8,adjacent/none,dependency
1,9,1418,1,1,2,1,9,9,0,none,none,1_9,none/none,none
2,2,4802,1,1,11,1,11,11,0,none,nonadjacent,1_11,none/nonadjacent,NA
2,3,2587,1,1,2,1,12,12,1,none,none,1_12,none/none,none
2,4,3443,1,1,7,1,13,13,0,nonadjacent,none,1_13,nonadjacent/none,dependency
2,5,1523,1,1,8,1,14,14,0,none,none,1_14,none/none,none
2,6,2019,1,1,4,1,15,15,0,none,none,1_15,none/none,none
2,7,1139,1,1,10,1,16,16,0,none,adjacent,1_16,none/adjacent,NA
2,8,1275,1,1,3,1,17,17,0,adjacent,none,1_17,adjacent/none,dependency
2,9,2394,1,1,12,1,18,18,0,none,none,1_18,none/none,none
3,1,1128,0,1,4,1,19,19,0,none,none,1_19,none/none,none
3,2,1524,1,1,11,1,20,20,0,none,nonadjacent,1_20,none/nonadjacent,NA
3,3,2274,1,1,12,1,21,21,1,none,none,1_21,none/none,none
3,4,1772,0,1,7,1,22,22,0,nonadjacent,none,1_22,nonadjacent/none,dependency
3,5,1627,1,1,2,1,23,23,0,none,none,1_23,none/none,none
3,6,1331,1,1,8,1,24,24,0,none,none,1_24,none/none,none
3,7,1186,1,1,10,1,25,25,0,none,adjacent,1_25,none/adjacent,NA
3,8,1372,0,1,3,1,26,26,0,adjacent,none,1_26,adjacent/none,dependency
4,1,1213,1,1,2,1,28,28,0,none,none,1_28,none/none,none
4,2,3306,1,1,11,1,29,29,0,none,nonadjacent,1_29,none/nonadjacent,NA
4,3,1754,1,1,4,1,30,30,1,none,none,1_30,none/none,none
4,4,2689,1,1,7,1,31,31,0,nonadjacent,none,1_31,nonadjacent/none,dependency
4,6,1641,1,1,12,1,33,33,0,none,none,1_33,none/none,none
4,7,2914,1,1,10,1,34,34,0,none,adjacent,1_34,none/adjacent,NA
4,8,1484,1,1,3,1,35,35,0,adjacent,none,1_35,adjacent/none,dependency
4,9,2114,1,1,8,1,36,36,0,none,none,1_36,none/none,none
5,1,1194,1,1,8,1,37,37,0,none,none,1_37,none/none,none
5,2,1083,1,1,11,1,38,38,0,none,nonadjacent,1_38,none/nonadjacent,NA
5,4,3804,1,1,7,1,40,40,0,nonadjacent,none,1_40,nonadjacent/none,dependency
5,5,3883,1,1,12,1,41,41,0,none,none,1_41,none/none,none
5,6,1299,1,1,2,1,42,42,0,none,none,1_42,none/none,none
5,7,1394,0,1,10,1,43,43,0,none,adjacent,1_43,none/adjacent,NA
5,8,2067,1,1,3,1,44,44,0,adjacent,none,1_44,adjacent/none,dependency
5,9,1284,1,1,4,1,45,45,0,none,none,1_45,none/none,none
6,1,1418,1,1,8,2,1,46,0,none,none,2_1,none/none,none
6,2,2338,1,1,4,2,2,47,0,none,none,2_2,none/none,none
6,3,1875,1,1,10,2,3,48,0,none,adjacent,2_3,none/adjacent,NA
6,4,1452,1,1,3,2,4,49,0,adjacent,none,2_4,adjacent/none,dependency
6,6,3355,1,1,11,2,6,51,0,none,nonadjacent,2_6,none/nonadjacent,NA
6,7,987,1,1,12,2,7,52,1,none,none,2_7,none/none,none
6,8,2044,1,1,7,2,8,53,0,nonadjacent,none,2_8,nonadjacent/none,dependency
6,9,1307,1,1,2,2,9,54,0,none,none,2_9,none/none,none
7,2,2338,1,1,12,2,11,56,0,none,none,2_11,none/none,none
7,3,1139,1,1,10,2,12,57,0,none,adjacent,2_12,none/adjacent,NA
7,4,1083,1,1,3,2,13,58,0,adjacent,none,2_13,adjacent/none,dependency
7,5,1164,1,1,2,2,14,59,0,none,none,2_14,none/none,none
7,6,1842,1,1,11,2,15,60,0,none,nonadjacent,2_15,none/nonadjacent,NA
7,7,1204,1,1,8,2,16,61,1,none,none,2_16,none/none,none
7,8,1363,1,1,7,2,17,62,0,nonadjacent,none,2_17,nonadjacent/none,dependency
7,9,1402,1,1,4,2,18,63,0,none,none,2_18,none/none,none
8,1,1011,1,1,2,2,19,64,0,none,none,2_19,none/none,none
8,2,1139,1,1,8,2,20,65,0,none,none,2_20,none/none,none
8,3,883,1,1,10,2,21,66,0,none,adjacent,2_21,none/adjacent,NA
8,4,1420,1,1,3,2,22,67,0,adjacent,none,2_22,adjacent/none,dependency
8,5,1179,1,1,4,2,23,68,0,none,none,2_23,none/none,none
8,6,947,1,1,11,2,24,69,0,none,nonadjacent,2_24,none/nonadjacent,NA
8,8,2860,1,1,7,2,26,71,0,nonadjacent,none,2_26,nonadjacent/none,dependency
8,9,1731,1,1,12,2,27,72,0,none,none,2_27,none/none,none
9,1,992,1,1,4,2,28,73,0,none,none,2_28,none/none,none
9,3,1492,1,1,10,2,30,75,0,none,adjacent,2_30,none/adjacent,NA
9,4,1490,1,1,3,2,31,76,0,adjacent,none,2_31,adjacent/none,dependency
9,5,1428,0,1,12,2,32,77,0,none,none,2_32,none/none,none
9,6,1803,1,1,11,2,33,78,0,none,nonadjacent,2_33,none/nonadjacent,NA
9,7,1178,1,1,2,2,34,79,1,none,none,2_34,none/none,none
9,8,1219,1,1,7,2,35,80,0,nonadjacent,none,2_35,nonadjacent/none,dependency
9,9,1281,1,1,8,2,36,81,0,none,none,2_36,none/none,none
10,1,1359,1,1,12,2,37,82,0,none,none,2_37,none/none,none
10,2,2082,1,1,2,2,38,83,0,none,none,2_38,none/none,none
10,3,833,1,1,10,2,39,84,0,none,adjacent,2_39,none/adjacent,NA
10,4,1459,0,1,3,2,40,85,0,adjacent,none,2_40,adjacent/none,dependency
10,5,1257,1,1,8,2,41,86,0,none,none,2_41,none/none,none
10,6,1050,1,1,11,2,42,87,0,none,nonadjacent,2_42,none/nonadjacent,NA
10,7,1098,1,1,4,2,43,88,1,none,none,2_43,none/none,none
10,8,1082,1,1,7,2,44,89,0,nonadjacent,none,2_44,nonadjacent/none,dependency
11,1,1145,1,1,2,3,1,91,0,none,none,3_1,none/none,none
11,2,1186,1,1,11,3,2,92,0,none,nonadjacent,3_2,none/nonadjacent,NA
11,3,1089,1,1,8,3,3,93,1,none,none,3_3,none/none,none
11,4,1114,1,1,7,3,4,94,0,nonadjacent,none,3_4,nonadjacent/none,dependency
11,5,1210,1,1,4,3,5,95,0,none,none,3_5,none/none,none
11,7,1603,1,1,10,3,7,97,0,none,adjacent,3_7,none/adjacent,NA
11,8,1161,1,1,3,3,8,98,0,adjacent,none,3_8,adjacent/none,dependency
11,9,994,1,1,12,3,9,99,0,none,none,3_9,none/none,none
12,1,1426,1,1,12,3,10,100,0,none,none,3_10,none/none,none
12,2,995,1,1,11,3,11,101,0,none,nonadjacent,3_11,none/nonadjacent,NA
12,3,1490,1,1,2,3,12,102,1,none,none,3_12,none/none,none
12,4,2474,1,1,7,3,13,103,0,nonadjacent,none,3_13,nonadjacent/none,dependency
12,5,1682,1,1,8,3,14,104,0,none,none,3_14,none/none,none
12,6,1524,1,1,4,3,15,105,0,none,none,3_15,none/none,none
12,7,1914,1,1,10,3,16,106,0,none,adjacent,3_16,none/adjacent,NA
12,8,1427,1,1,3,3,17,107,0,adjacent,none,3_17,adjacent/none,dependency
13,1,4084,1,1,8,3,19,109,0,none,none,3_19,none/none,none
13,2,1099,1,1,11,3,20,110,0,none,nonadjacent,3_20,none/nonadjacent,NA
13,3,1115,1,1,4,3,21,111,1,none,none,3_21,none/none,none
13,4,1444,1,1,7,3,22,112,0,nonadjacent,none,3_22,nonadjacent/none,dependency
13,6,946,1,1,12,3,24,114,0,none,none,3_24,none/none,none
13,7,2194,1,1,10,3,25,115,0,none,adjacent,3_25,none/adjacent,NA
13,8,1698,1,1,3,3,26,116,0,adjacent,none,3_26,adjacent/none,dependency
13,9,1154,1,1,2,3,27,117,0,none,none,3_27,none/none,none
14,2,1259,1,1,11,3,29,119,0,none,nonadjacent,3_29,none/nonadjacent,NA
14,3,1090,1,1,12,3,30,120,1,none,none,3_30,none/none,none
14,4,1794,1,1,7,3,31,121,0,nonadjacent,none,3_31,nonadjacent/none,dependency
14,5,1226,1,1,2,3,32,122,0,none,none,3_32,none/none,none
14,6,1018,1,1,8,3,33,123,0,none,none,3_33,none/none,none
14,7,850,1,1,10,3,34,124,0,none,adjacent,3_34,none/adjacent,NA
14,8,1393,1,1,3,3,35,125,0,adjacent,none,3_35,adjacent/none,dependency
14,9,1603,1,1,4,3,36,126,0,none,none,3_36,none/none,none
15,1,949,1,1,4,3,37,127,0,none,none,3_37,none/none,none
15,2,995,1,1,11,3,38,128,0,none,nonadjacent,3_38,none/nonadjacent,NA
15,4,1338,1,1,7,3,40,130,0,nonadjacent,none,3_40,nonadjacent/none,dependency
15,5,1123,1,1,12,3,41,131,0,none,none,3_41,none/none,none
15,6,1228,1,1,2,3,42,132,0,none,none,3_42,none/none,none
15,7,995,1,1,10,3,43,133,0,none,adjacent,3_43,none/adjacent,NA
15,8,1083,1,1,3,3,44,134,0,adjacent,none,3_44,adjacent/none,dependency
15,9,1331,1,1,8,3,45,135,0,none,none,3_45,none/none,none
16,1,1238,1,1,4,4,1,136,0,none,none,4_1,none/none,none
16,2,1065,0,1,8,4,2,137,0,none,none,4_2,none/none,none
16,3,2355,1,1,10,4,3,138,0,none,adjacent,4_3,none/adjacent,NA
16,4,1442,1,1,3,4,4,139,0,adjacent,none,4_4,adjacent/none,dependency
16,5,1586,1,1,12,4,5,140,0,none,none,4_5,none/none,none
16,6,1897,1,1,11,4,6,141,0,none,nonadjacent,4_6,none/nonadjacent,NA
16,7,1187,1,1,2,4,7,142,1,none,none,4_7,none/none,none
16,8,1266,1,1,7,4,8,143,0,nonadjacent,none,4_8,nonadjacent/none,dependency
17,2,1275,1,1,4,4,11,146,0,none,none,4_11,none/none,none
17,3,1625,1,1,10,4,12,147,0,none,adjacent,4_12,none/adjacent,NA
17,4,2058,1,1,3,4,13,148,0,adjacent,none,4_13,adjacent/none,dependency
17,5,1347,1,1,2,4,14,149,0,none,none,4_14,none/none,none
17,6,1003,1,1,11,4,15,150,0,none,nonadjacent,4_15,none/nonadjacent,NA
17,7,1330,1,1,8,4,16,151,1,none,none,4_16,none/none,none
17,8,1460,1,1,7,4,17,152,0,nonadjacent,none,4_17,nonadjacent/none,dependency
17,9,1203,1,1,12,4,18,153,0,none,none,4_18,none/none,none
18,1,1502,1,1,8,4,19,154,0,none,none,4_19,none/none,none
18,2,1331,1,1,2,4,20,155,0,none,none,4_20,none/none,none
18,3,1115,1,1,10,4,21,156,0,none,adjacent,4_21,none/adjacent,NA
18,4,1195,1,1,3,4,22,157,0,adjacent,none,4_22,adjacent/none,dependency
18,6,1396,1,1,11,4,24,159,0,none,nonadjacent,4_24,none/nonadjacent,NA
18,7,1219,1,1,12,4,25,160,1,none,none,4_25,none/none,none
18,8,1066,1,1,7,4,26,161,0,nonadjacent,none,4_26,nonadjacent/none,dependency
18,9,1436,1,1,4,4,27,162,0,none,none,4_27,none/none,none
19,1,1491,1,1,12,4,28,163,0,none,none,4_28,none/none,none
19,3,1003,1,1,10,4,30,165,0,none,adjacent,4_30,none/adjacent,NA
19,4,988,1,1,3,4,31,166,0,adjacent,none,4_31,adjacent/none,dependency
19,5,2154,1,1,8,4,32,167,0,none,none,4_32,none/none,none
19,6,1043,1,1,11,4,33,168,0,none,nonadjacent,4_33,none/nonadjacent,NA
19,7,1091,1,1,4,4,34,169,1,none,none,4_34,none/none,none
19,8,3204,1,1,7,4,35,170,0,nonadjacent,none,4_35,nonadjacent/none,dependency
19,9,979,1,1,2,4,36,171,0,none,none,4_36,none/none,none
20,1,777,1,1,2,4,37,172,0,none,none,4_37,none/none,none
20,2,1107,1,1,12,4,38,173,0,none,none,4_38,none/none,none
20,3,995,0,1,10,4,39,174,0,none,adjacent,4_39,none/adjacent,NA
20,4,1676,1,1,3,4,40,175,0,adjacent,none,4_40,adjacent/none,dependency
20,5,1450,1,1,4,4,41,176,0,none,none,4_41,none/none,none
20,6,1076,1,1,11,4,42,177,0,none,nonadjacent,4_42,none/nonadjacent,NA
20,8,987,1,1,7,4,44,179,0,nonadjacent,none,4_44,nonadjacent/none,dependency
20,9,1444,1,1,8,4,45,180,0,none,none,4_45,none/none,none
21,2,1203,1,1,11,5,2,182,0,none,nonadjacent,5_2,none/nonadjacent,NA
21,3,1035,1,1,4,5,3,183,1,none,none,5_3,none/none,none
21,4,1523,1,1,7,5,4,184,0,nonadjacent,none,5_4,nonadjacent/none,dependency
21,5,1275,1,1,2,5,5,185,0,none,none,5_5,none/none,none
21,6,1338,1,1,8,5,6,186,0,none,none,5_6,none/none,none
21,7,1867,0,1,10,5,7,187,0,none,adjacent,5_7,none/adjacent,NA
21,8,1259,1,1,3,5,8,188,0,adjacent,none,5_8,adjacent/none,dependency
21,9,1380,1,1,12,5,9,189,0,none,none,5_9,none/none,none
22,1,1073,1,1,2,5,10,190,0,none,none,5_10,none/none,none
22,2,947,1,1,11,5,11,191,0,none,nonadjacent,5_11,none/nonadjacent,NA
22,3,1043,1,1,12,5,12,192,1,none,none,5_12,none/none,none
22,4,2291,1,1,7,5,13,193,0,nonadjacent,none,5_13,nonadjacent/none,dependency
22,5,1083,1,1,4,5,14,194,0,none,none,5_14,none/none,none
22,7,1099,0,1,10,5,16,196,0,none,adjacent,5_16,none/adjacent,NA
22,8,1923,1,1,3,5,17,197,0,adjacent,none,5_17,adjacent/none,dependency
22,9,1372,0,1,8,5,18,198,0,none,none,5_18,none/none,none
23,1,1519,1,1,12,5,19,199,0,none,none,5_19,none/none,none
23,2,1042,1,1,11,5,20,200,0,none,nonadjacent,5_20,none/nonadjacent,NA
23,4,1178,1,1,7,5,22,202,0,nonadjacent,none,5_22,nonadjacent/none,dependency
23,5,1898,1,1,8,5,23,203,0,none,none,5_23,none/none,none
23,6,1227,1,1,4,5,24,204,0,none,none,5_24,none/none,none
23,7,1034,1,1,10,5,25,205,0,none,adjacent,5_25,none/adjacent,NA
23,8,1258,1,1,3,5,26,206,0,adjacent,none,5_26,adjacent/none,dependency
23,9,1202,1,1,2,5,27,207,0,none,none,5_27,none/none,none
24,1,1039,1,1,4,5,28,208,0,none,none,5_28,none/none,none
24,2,1129,1,1,11,5,29,209,0,none,nonadjacent,5_29,none/nonadjacent,NA
24,3,1154,1,1,8,5,30,210,1,none,none,5_30,none/none,none
24,4,978,1,1,7,5,31,211,0,nonadjacent,none,5_31,nonadjacent/none,dependency
24,5,1268,1,1,12,5,32,212,0,none,none,5_32,none/none,none
24,6,1034,1,1,2,5,33,213,0,none,none,5_33,none/none,none
24,7,1386,1,1,10,5,34,214,0,none,adjacent,5_34,none/adjacent,NA
24,8,1193,1,1,3,5,35,215,0,adjacent,none,5_35,adjacent/none,dependency
25,1,1010,1,1,8,5,37,217,0,none,none,5_37,none/none,none
25,2,1298,1,1,11,5,38,218,0,none,nonadjacent,5_38,none/nonadjacent,NA
25,3,1219,1,1,2,5,39,219,1,none,none,5_39,none/none,none
25,4,1747,1,1,7,5,40,220,0,nonadjacent,none,5_40,nonadjacent/none,dependency
25,6,1562,1,1,12,5,42,222,0,none,none,5_42,none/none,none
25,7,1043,1,1,10,5,43,223,0,none,adjacent,5_43,none/adjacent,NA
25,8,1019,1,1,3,5,44,224,0,adjacent,none,5_44,adjacent/none,dependency
25,9,1451,1,1,4,5,45,225,0,none,none,5_45,none/none,none
26,1,1097,1,1,4,6,1,226,0,none,none,6_1,none/none,none
26,2,1274,1,1,2,6,2,227,0,none,none,6_2,none/none,none
26,3,1436,1,1,10,6,3,228,0,none,adjacent,6_3,none/adjacent,NA
26,4,1891,1,1,3,6,4,229,0,adjacent,none,6_4,adjacent/none,dependency
26,6,1084,1,1,11,6,6,231,0,none,nonadjacent,6_6,none/nonadjacent,NA
26,7,1099,1,1,12,6,7,232,1,none,none,6_7,none/none,none
26,8,634,0,1,7,6,8,233,0,nonadjacent,none,6_8,nonadjacent/none,dependency
26,9,1588,1,1,8,6,9,234,0,none,none,6_9,none/none,none
27,1,1283,1,1,2,6,10,235,0,none,none,6_10,none/none,none
27,3,1907,1,1,10,6,12,237,0,none,adjacent,6_12,none/adjacent,NA
27,4,1410,1,1,3,6,13,238,0,adjacent,none,6_13,adjacent/none,dependency
27,5,1163,1,1,8,6,14,239,0,none,none,6_14,none/none,none
27,6,1923,1,1,11,6,15,240,0,none,nonadjacent,6_15,none/nonadjacent,NA
27,7,2308,1,1,4,6,16,241,1,none,none,6_16,none/none,none
27,8,939,1,1,7,6,17,242,0,nonadjacent,none,6_17,nonadjacent/none,dependency
27,9,1979,1,1,12,6,18,243,0,none,none,6_18,none/none,none
28,1,1703,1,1,12,6,19,244,0,none,none,6_19,none/none,none
28,2,1283,1,1,4,6,20,245,0,none,none,6_20,none/none,none
28,3,899,1,1,10,6,21,246,0,none,adjacent,6_21,none/adjacent,NA
28,4,1043,1,1,3,6,22,247,0,adjacent,none,6_22,adjacent/none,dependency
28,5,1099,1,1,2,6,23,248,0,none,none,6_23,none/none,none
28,6,1436,1,1,11,6,24,249,0,none,nonadjacent,6_24,none/nonadjacent,NA
28,7,2274,1,1,8,6,25,250,1,none,none,6_25,none/none,none
28,8,1139,1,1,7,6,26,251,0,nonadjacent,none,6_26,nonadjacent/none,dependency
29,2,1364,1,1,8,6,29,254,0,none,none,6_29,none/none,none
29,3,2698,1,1,10,6,30,255,0,none,adjacent,6_30,none/adjacent,NA
29,4,4208,1,1,3,6,31,256,0,adjacent,none,6_31,adjacent/none,dependency
29,5,2532,1,1,12,6,32,257,0,none,none,6_32,none/none,none
29,6,1394,1,1,11,6,33,258,0,none,nonadjacent,6_33,none/nonadjacent,NA
29,7,1291,1,1,2,6,34,259,1,none,none,6_34,none/none,none
29,8,3051,0,1,7,6,35,260,0,nonadjacent,none,6_35,nonadjacent/none,dependency
29,9,1931,1,1,4,6,36,261,0,none,none,6_36,none/none,none
30,1,1082,1,1,8,6,37,262,0,none,none,6_37,none/none,none
30,2,1179,1,1,12,6,38,263,0,none,none,6_38,none/none,none
30,3,2075,1,1,10,6,39,264,0,none,adjacent,6_39,none/adjacent,NA
30,4,2338,1,1,3,6,40,265,0,adjacent,none,6_40,adjacent/none,dependency
30,5,1508,1,1,4,6,41,266,0,none,none,6_41,none/none,none
30,6,2163,1,1,11,6,42,267,0,none,nonadjacent,6_42,none/nonadjacent,NA
30,8,2531,1,1,7,6,44,269,0,nonadjacent,none,6_44,nonadjacent/none,dependency
30,9,1139,1,1,2,6,45,270,0,none,none,6_45,none/none,none
31,1,1031,1,1,4,7,1,271,0,none,none,7_1,none/none,none
31,3,1594,1,1,2,7,3,273,0,none,none,7_3,none/none,none
31,4,2228,1,1,12,7,4,274,0,none,none,7_4,none/none,none
31,5,2730,1,1,8,7,5,275,0,none,none,7_5,none/none,none
31,6,1372,1,1,3,7,6,276,0,none,none,7_6,none/none,none
31,7,2955,1,1,7,7,7,277,0,none,none,7_7,none/none,none
31,8,4003,1,1,11,7,8,278,0,none,nonadjacent,7_8,none/nonadjacent,NA
31,9,2283,1,1,10,7,9,279,1,none,adjacent,7_9,none/adjacent,NA
32,1,1775,1,1,10,7,10,280,0,both,adjacent,7_10,both/adjacent,dependency
32,2,1123,1,1,8,7,11,281,0,adjacent,none,7_11,adjacent/none,dependency
32,3,891,1,1,3,7,12,282,0,none,none,7_12,none/none,none
32,4,1267,1,1,7,7,13,283,0,none,none,7_13,none/none,none
32,5,986,1,1,11,7,14,284,0,none,nonadjacent,7_14,none/nonadjacent,NA
32,7,1042,1,1,4,7,16,286,0,nonadjacent,none,7_16,nonadjacent/none,dependency
32,8,1329,1,1,2,7,17,287,0,none,none,7_17,none/none,none
32,9,986,1,1,12,7,18,288,0,none,none,7_18,none/none,none
33,1,830,1,1,2,7,19,289,0,none,none,7_19,none/none,none
33,2,1057,1,1,7,7,20,290,0,none,none,7_20,none/none,none
33,3,1226,1,1,12,7,21,291,0,none,none,7_21,none/none,none
33,4,1146,1,1,4,7,22,292,0,none,none,7_22,none/none,none
33,5,1203,1,1,3,7,23,293,0,none,none,7_23,none/none,none
33,6,1010,1,1,8,7,24,294,0,none,none,7_24,none/none,none
33,7,1131,1,1,11,7,25,295,0,none,nonadjacent,7_25,none/nonadjacent,NA
33,8,1433,1,1,10,7,26,296,1,none,adjacent,7_26,none/adjacent,NA
34,1,1043,1,1,8,7,28,298,0,none,none,7_28,none/none,none
34,2,1026,1,1,4,7,29,299,0,none,none,7_29,none/none,none
34,3,1314,1,1,10,7,30,300,0,none,adjacent,7_30,none/adjacent,NA
34,5,1002,1,1,2,7,32,302,0,none,none,7_32,none/none,none
34,6,1084,1,1,12,7,33,303,0,none,none,7_33,none/none,none
34,7,1291,1,1,3,7,34,304,0,none,none,7_34,none/none,none
34,8,1123,1,1,7,7,35,305,0,none,none,7_35,none/none,none
34,9,2426,1,1,11,7,36,306,0,none,nonadjacent,7_36,none/nonadjacent,NA
35,1,1201,1,1,7,7,37,307,1,none,none,7_37,none/none,none
35,2,1866,1,1,12,7,38,308,0,nonadjacent,none,7_38,nonadjacent/none,dependency
35,3,1156,1,1,8,7,39,309,0,none,none,7_39,none/none,none
35,4,1882,1,1,2,7,40,310,0,none,none,7_40,none/none,none
35,5,2652,1,1,10,7,41,311,0,none,adjacent,7_41,none/adjacent,NA
35,6,1771,1,1,11,7,42,312,0,adjacent,nonadjacent,7_42,adjacent/nonadjacent,dependency
35,8,1187,1,1,4,7,44,314,0,nonadjacent,none,7_44,nonadjacent/none,dependency
35,9,5050,0,1,3,7,45,315,0,none,none,7_45,none/none,none
36,1,7084,1,2,8,1,1,1,0,none,none,1_1,none/none,none
36,2,1097,1,2,4,1,2,2,0,none,none,1_2,none/none,none
36,3,945,1,2,10,1,3,3,0,none,adjacent,1_3,none/adjacent,NA
36,4,2103,1,2,3,1,4,4,0,adjacent,none,1_4,adjacent/none,dependency
36,6,1673,1,2,11,1,6,6,0,none,nonadjacent,1_6,none/nonadjacent,NA
36,7,2948,1,2,12,1,7,7,1,none,none,1_7,none/none,none
36,8,1032,1,2,7,1,8,8,0,nonadjacent,none,1_8,nonadjacent/none,dependency
36,9,993,1,2,2,1,9,9,0,none,none,1_9,none/none,none
37,1,2077,1,2,12,1,10,10,0,none,none,1_10,none/none,none
37,2,914,1,2,2,1,11,11,0,none,none,1_11,none/none,none
37,3,1282,1,2,10,1,12,12,0,none,adjacent,1_12,none/adjacent,NA
37,4,1927,1,2,3,1,13,13,0,adjacent,none,1_13,adjacent/none,dependency
37,5,980,1,2,8,1,14,14,0,none,none,1_14,none/none,none
37,6,1253,1,2,11,1,15,15,0,none,nonadjacent,1_15,none/nonadjacent,NA
37,7,1217,1,2,4,1,16,16,1,none,none,1_16,none/none,none
37,8,1058,1,2,7,1,17,17,0,nonadjacent,none,1_17,nonadjacent/none,dependency
38,2,1049,1,2,12,1,20,20,0,none,none,1_20,none/none,none
38,3,930,1,2,10,1,21,21,0,none,adjacent,1_21,none/adjacent,NA
38,4,1186,1,2,3,1,22,22,0,adjacent,none,1_22,adjacent/none,dependency
38,5,945,1,2,2,1,23,23,0,none,none,1_23,none/none,none
38,6,1107,1,2,11,1,24,24,0,none,nonadjacent,1_24,none/nonadjacent,NA
38,7,945,1,2,8,1,25,25,1,none,none,1_25,none/none,none
38,8,841,1,2,7,1,26,26,0,nonadjacent,none,1_26,nonadjacent/none,dependency
38,9,953,1,2,4,1,27,27,0,none,none,1_27,none/none,none
39,1,764,1,2,2,1,28,28,0,none,none,1_28,none/none,none
39,2,1393,1,2,8,1,29,29,0,none,none,1_29,none/none,none
39,3,897,1,2,10,1,30,30,0,none,adjacent,1_30,none/adjacent,NA
39,4,851,1,2,3,1,31,31,0,adjacent,none,1_31,adjacent/none,dependency
39,5,1241,0,2,4,1,32,32,0,none,none,1_32,none/none,none
39,6,1882,1,2,11,1,33,33,0,none,nonadjacent,1_33,none/nonadjacent,NA
39,8,935,1,2,7,1,35,35,0,nonadjacent,none,1_35,nonadjacent/none,dependency
39,9,1465,1,2,12,1,36,36,0,none,none,1_36,none/none,none
40,1,1460,1,2,4,1,37,37,0,none,none,1_37,none/none,none
40,3,858,1,2,10,1,39,39,0,none,adjacent,1_39,none/adjacent,NA
40,4,1465,1,2,3,1,40,40,0,adjacent,none,1_40,adjacent/none,dependency
40,5,1161,1,2,12,1,41,41,0,none,none,1_41,none/none,none
40,6,1091,1,2,11,1,42,42,0,none,nonadjacent,1_42,none/nonadjacent,NA
40,7,802,1,2,2,1,43,43,1,none,none,1_43,none/none,none
40,8,936,1,2,7,1,44,44,0,nonadjacent,none,1_44,nonadjacent/none,dependency
40,9,929,1,2,8,1,45,45,0,none,none,1_45,none/none,none
41,1,804,1,2,8,2,1,46,0,none,none,2_1,none/none,none
41,2,970,1,2,11,2,2,47,0,none,nonadjacent,2_2,none/nonadjacent,NA
41,4,826,1,2,7,2,4,49,0,nonadjacent,none,2_4,nonadjacent/none,dependency
41,5,986,1,2,12,2,5,50,0,none,none,2_5,none/none,none
41,6,777,1,2,2,2,6,51,0,none,none,2_6,none/none,none
41,7,1243,1,2,10,2,7,52,0,none,adjacent,2_7,none/adjacent,NA
41,8,994,1,2,3,2,8,53,0,adjacent,none,2_8,adjacent/none,dependency
41,9,928,1,2,4,2,9,54,0,none,none,2_9,none/none,none
42,1,884,1,2,2,2,10,55,0,none,none,2_10,none/none,none
42,2,3659,1,2,11,2,11,56,0,none,nonadjacent,2_11,none/nonadjacent,NA
42,3,890,1,2,4,2,12,57,1,none,none,2_12,none/none,none
42,4,842,1,2,7,2,13,58,0,nonadjacent,none,2_13,nonadjacent/none,dependency
42,6,857,1,2,12,2,15,60,0,none,none,2_15,none/none,none
42,7,1233,1,2,10,2,16,61,0,none,adjacent,2_16,none/adjacent,NA
42,8,987,1,2,3,2,17,62,0,adjacent,none,2_17,adjacent/none,dependency
42,9,1998,1,2,8,2,18,63,0,none,none,2_18,none/none,none
43,1,1322,1,2,4,2,19,64,0,none,none,2_19,none/none,none
43,2,1609,1,2,11,2,20,65,0,none,nonadjacent,2_20,none/nonadjacent,NA
43,3,721,1,2,12,2,21,66,1,none,none,2_21,none/none,none
43,4,826,1,2,7,2,22,67,0,nonadjacent,none,2_22,nonadjacent/none,dependency
43,5,746,1,2,2,2,23,68,0,none,none,2_23,none/none,none
43,6,873,1,2,8,2,24,69,0,none,none,2_24,none/none,none
43,7,796,1,2,10,2,25,70,0,none,adjacent,2_25,none/adjacent,NA
43,8,1476,1,2,3,2,26,71,0,adjacent,none,2_26,adjacent/none,dependency
44,2,834,1,2,11,2,29,74,0,none,nonadjacent,2_29,none/nonadjacent,NA
44,3,1017,1,2,2,2,30,75,1,none,none,2_30,none/none,none
44,4,939,1,2,7,2,31,76,0,nonadjacent,none,2_31,nonadjacent/none,dependency
44,5,850,1,2,8,2,32,77,0,none,none,2_32,none/none,none
44,6,2262,1,2,4,2,33,78,0,none,none,2_33,none/none,none
44,7,805,1,2,10,2,34,79,0,none,adjacent,2_34,none/adjacent,NA
44,8,1118,1,2,3,2,35,80,0,adjacent,none,2_35,adjacent/none,dependency
44,9,1160,1,2,12,2,36,81,0,none,none,2_36,none/none,none
45,1,1290,1,2,12,2,37,82,0,none,none,2_37,none/none,none
45,2,1041,1,2,11,2,38,83,0,none,nonadjacent,2_38,none/nonadjacent,NA
45,3,1177,1,2,8,2,39,84,1,none,none,2_39,none/none,none
45,4,1529,1,2,7,2,40,85,0,nonadjacent,none,2_40,nonadjacent/none,dependency
45,5,914,1,2,4,2,41,86,0,none,none,2_41,none/none,none
45,7,1528,1,2,10,2,43,88,0,none,adjacent,2_43,none/adjacent,NA
45,8,1209,1,2,3,2,44,89,0,adjacent,none,2_44,adjacent/none,dependency
45,9,825,1,2,2,2,45,90,0,none,none,2_45,none/none,none
46,1,867,1,2,2,3,1,91,0,none,none,3_1,none/none,none
46,2,849,1,2,12,3,2,92,0,none,none,3_2,none/none,none
46,3,1449,1,2,10,3,3,93,0,none,adjacent,3_3,none/adjacent,NA
46,4,1202,1,2,3,3,4,94,0,adjacent,none,3_4,adjacent/none,dependency
46,5,890,1,2,4,3,5,95,0,none,none,3_5,none/none,none
46,6,989,1,2,11,3,6,96,0,none,nonadjacent,3_6,none/nonadjacent,NA
46,8,794,1,2,7,3,8,98,0,nonadjacent,none,3_8,nonadjacent/none,dependency
46,9,913,1,2,8,3,9,99,0,none,none,3_9,none/none,none
47,1,951,1,2,12,3,10,100,0,none,none,3_10,none/none,none
47,3,1058,1,2,10,3,12,102,0,none,adjacent,3_12,none/adjacent,NA
47,4,1233,1,2,3,3,13,103,0,adjacent,none,3_13,adjacent/none,dependency
47,5,963,1,2,8,3,14,104,0,none,none,3_14,none/none,none
47,6,1078,1,2,11,3,15,105,0,none,nonadjacent,3_15,none/nonadjacent,NA
47,7,1216,1,2,4,3,16,106,1,none,none,3_16,none/none,none
47,8,1225,1,2,7,3,17,107,0,nonadjacent,none,3_17,nonadjacent/none,dependency
47,9,922,1,2,2,3,18,108,0,none,none,3_18,none/none,none
48,1,904,1,2,8,3,19,109,0,none,none,3_19,none/none,none
48,2,1337,1,2,2,3,20,110,0,none,none,3_20,none/none,none
48,3,811,1,2,10,3,21,111,0,none,adjacent,3_21,none/adjacent,NA
48,4,2270,1,2,3,3,22,112,0,adjacent,none,3_22,adjacent/none,dependency
48,6,875,1,2,11,3,24,114,0,none,nonadjacent,3_24,none/nonadjacent,NA
48,7,886,1,2,12,3,25,115,1,none,none,3_25,none/none,none
48,8,1360,1,2,7,3,26,116,0,nonadjacent,none,3_26,nonadjacent/none,dependency
48,9,1169,1,2,4,3,27,117,0,none,none,3_27,none/none,none
49,1,1904,1,2,4,3,28,118,0,none,none,3_28,none/none,none
49,2,737,1,2,8,3,29,119,0,none,none,3_29,none/none,none
49,3,730,1,2,10,3,30,120,0,none,adjacent,3_30,none/adjacent,NA
49,4,1114,1,2,3,3,31,121,0,adjacent,none,3_31,adjacent/none,dependency
49,5,968,1,2,12,3,32,122,0,none,none,3_32,none/none,none
49,6,1026,1,2,11,3,33,123,0,none,nonadjacent,3_33,none/nonadjacent,NA
49,7,1587,1,2,2,3,34,124,1,none,none,3_34,none/none,none
49,8,1065,1,2,7,3,35,125,0,nonadjacent,none,3_35,nonadjacent/none,dependency
50,2,921,1,2,4,3,38,128,0,none,none,3_38,none/none,none
50,3,1018,1,2,10,3,39,129,0,none,adjacent,3_39,none/adjacent,NA
50,4,1161,1,2,3,3,40,130,0,adjacent,none,3_40,adjacent/none,dependency
50,5,1200,1,2,2,3,41,131,0,none,none,3_41,none/none,none
50,6,1371,1,2,11,3,42,132,0,none,nonadjacent,3_42,none/nonadjacent,NA
50,7,969,1,2,8,3,43,133,1,none,none,3_43,none/none,none
50,8,1503,1,2,7,3,44,134,0,nonadjacent,none,3_44,nonadjacent/none,dependency
50,9,1201,1,2,12,3,45,135,0,none,none,3_45,none/none,none
51,1,798,1,2,8,4,1,136,0,none,none,4_1,none/none,none
51,2,1785,1,2,11,4,2,137,0,none,nonadjacent,4_2,none/nonadjacent,NA
51,3,1528,1,2,4,4,3,138,1,none,none,4_3,none/none,none
51,4,1911,1,2,7,4,4,139,0,nonadjacent,none,4_4,nonadjacent/none,dependency
51,6,1076,1,2,12,4,6,141,0,none,none,4_6,none/none,none
51,7,962,1,2,10,4,7,142,0,none,adjacent,4_7,none/adjacent,NA
51,8,1401,1,2,3,4,8,143,0,adjacent,none,4_8,adjacent/none,dependency
51,9,850,1,2,2,4,9,144,0,none,none,4_9,none/none,none
52,2,874,1,2,11,4,11,146,0,none,nonadjacent,4_11,none/nonadjacent,NA
52,3,826,1,2,12,4,12,147,1,none,none,4_12,none/none,none
52,4,962,1,2,7,4,13,148,0,nonadjacent,none,4_13,nonadjacent/none,dependency
52,5,1129,1,2,2,4,14,149,0,none,none,4_14,none/none,none
52,6,1153,1,2,8,4,15,150,0,none,none,4_15,none/none,none
52,7,1045,1,2,10,4,16,151,0,none,adjacent,4_16,none/adjacent,NA
52,8,2606,1,2,3,4,17,152,0,adjacent,none,4_17,adjacent/none,dependency
52,9,906,1,2,4,4,18,153,0,none,none,4_18,none/none,none
53,1,923,1,2,2,4,19,154,0,none,none,4_19,none/none,none
53,2,971,1,2,11,4,20,155,0,none,nonadjacent,4_20,none/nonadjacent,NA
53,3,1400,1,2,8,4,21,156,1,none,none,4_21,none/none,none
53,4,778,1,2,7,4,22,157,0,nonadjacent,none,4_22,nonadjacent/none,dependency
53,5,2064,1,2,4,4,23,158,0,none,none,4_23,none/none,none
53,7,2629,1,2,10,4,25,160,0,none,adjacent,4_25,none/adjacent,NA
53,8,2001,1,2,3,4,26,161,0,adjacent,none,4_26,adjacent/none,dependency
53,9,3100,1,2,12,4,27,162,0,none,none,4_27,none/none,none
54,1,1190,1,2,4,4,28,163,0,none,none,4_28,none/none,none
54,2,1121,1,2,11,4,29,164,0,none,nonadjacent,4_29,none/nonadjacent,NA
54,4,1216,1,2,7,4,31,166,0,nonadjacent,none,4_31,nonadjacent/none,dependency
54,5,781,1,2,12,4,32,167,0,none,none,4_32,none/none,none
54,6,846,1,2,2,4,33,168,0,none,none,4_33,none/none,none
54,7,769,1,2,10,4,34,169,0,none,adjacent,4_34,none/adjacent,NA
54,8,978,1,2,3,4,35,170,0,adjacent,none,4_35,adjacent/none,dependency
54,9,1033,1,2,8,4,36,171,0,none,none,4_36,none/none,none
55,1,1098,1,2,12,4,37,172,0,none,none,4_37,none/none,none
55,2,1026,1,2,11,4,38,173,0,none,nonadjacent,4_38,none/nonadjacent,NA
55,3,1183,1,2,2,4,39,174,1,none,none,4_39,none/none,none
55,4,1968,1,2,7,4,40,175,0,nonadjacent,none,4_40,nonadjacent/none,dependency
55,5,801,1,2,8,4,41,176,0,none,none,4_41,none/none,none
55,6,1343,1,2,4,4,42,177,0,none,none,4_42,none/none,none
55,7,1480,1,2,10,4,43,178,0,none,adjacent,4_43,none/adjacent,NA
55,8,1353,1,2,3,4,44,179,0,adjacent,none,4_44,adjacent/none,dependency
56,1,846,1,2,8,5,1,181,0,none,none,5_1,none/none,none
56,2,810,1,2,12,5,2,182,0,none,none,5_2,none/none,none
56,3,921,1,2,10,5,3,183,0,none,adjacent,5_3,none/adjacent,NA
56,4,1233,1,2,3,5,4,184,0,adjacent,none,5_4,adjacent/none,dependency
56,5,2072,1,2,4,5,5,185,0,none,none,5_5,none/none,none
56,6,849,1,2,11,5,6,186,0,none,nonadjacent,5_6,none/nonadjacent,NA
56,8,882,1,2,7,5,8,188,0,nonadjacent,none,5_8,nonadjacent/none,dependency
56,9,767,1,2,2,5,9,189,0,none,none,5_9,none/none,none
57,2,938,1,2,8,5,11,191,0,none,none,5_11,none/none,none
57,3,866,1,2,10,5,12,192,0,none,adjacent,5_12,none/adjacent,NA
57,4,1393,1,2,3,5,13,193,0,adjacent,none,5_13,adjacent/none,dependency
57,5,3619,1,2,12,5,14,194,0,none,none,5_14,none/none,none
57,6,1004,1,2,11,5,15,195,0,none,nonadjacent,5_15,none/nonadjacent,NA
57,7,1032,1,2,2,5,16,196,1,none,none,5_16,none/none,none
57,8,1033,1,2,7,5,17,197,0,nonadjacent,none,5_17,nonadjacent/none,dependency
57,9,986,1,2,4,5,18,198,0,none,none,5_18,none/none,none
58,1,1141,1,2,4,5,19,199,0,none,none,5_19,none/none,none
58,2,946,1,2,2,5,20,200,0,none,none,5_20,none/none,none
58,3,905,1,2,10,5,21,201,0,none,adjacent,5_21,none/adjacent,NA
58,4,795,1,2,3,5,22,202,0,adjacent,none,5_22,adjacent/none,dependency
58,6,867,1,2,11,5,24,204,0,none,nonadjacent,5_24,none/nonadjacent,NA
58,7,772,1,2,12,5,25,205,1,none,none,5_25,none/none,none
58,8,925,1,2,7,5,26,206,0,nonadjacent,none,5_26,nonadjacent/none,dependency
58,9,1258,1,2,8,5,27,207,0,none,none,5_27,none/none,none
59,1,991,1,2,12,5,28,208,0,none,none,5_28,none/none,none
59,2,993,1,2,4,5,29,209,0,none,none,5_29,none/none,none
59,3,2014,1,2,10,5,30,210,0,none,adjacent,5_30,none/adjacent,NA
59,4,1809,1,2,3,5,31,211,0,adjacent,none,5_31,adjacent/none,dependency
59,5,1768,1,2,2,5,32,212,0,none,none,5_32,none/none,none
59,6,1218,1,2,11,5,33,213,0,none,nonadjacent,5_33,none/nonadjacent,NA
59,7,1328,1,2,8,5,34,214,1,none,none,5_34,none/none,none
59,8,1128,1,2,7,5,35,215,0,nonadjacent,none,5_35,nonadjacent/none,dependency
60,1,806,1,2,2,5,37,217,0,none,none,5_37,none/none,none
60,3,866,1,2,10,5,39,219,0,none,adjacent,5_39,none/adjacent,NA
60,4,978,1,2,3,5,40,220,0,adjacent,none,5_40,adjacent/none,dependency
60,5,1010,1,2,8,5,41,221,0,none,none,5_41,none/none,none
60,6,922,1,2,11,5,42,222,0,none,nonadjacent,5_42,none/nonadjacent,NA
60,7,891,1,2,4,5,43,223,1,none,none,5_43,none/none,none
60,8,950,1,2,7,5,44,224,0,nonadjacent,none,5_44,nonadjacent/none,dependency
60,9,1432,1,2,12,5,45,225,0,none,none,5_45,none/none,none
61,1,884,1,2,8,6,1,226,0,none,none,6_1,none/none,none
61,2,970,1,2,11,6,2,227,0,none,nonadjacent,6_2,none/nonadjacent,NA
61,3,1072,1,2,2,6,3,228,1,none,none,6_3,none/none,none
61,4,866,1,2,7,6,4,229,0,nonadjacent,none,6_4,nonadjacent/none,dependency
61,6,794,1,2,12,6,6,231,0,none,none,6_6,none/none,none
61,7,1403,1,2,10,6,7,232,0,none,adjacent,6_7,none/adjacent,NA
61,8,1313,1,2,3,6,8,233,0,adjacent,none,6_8,adjacent/none,dependency
61,9,986,1,2,4,6,9,234,0,none,none,6_9,none/none,none
62,1,1709,1,2,4,6,10,235,0,none,none,6_10,none/none,none
62,2,842,1,2,11,6,11,236,0,none,nonadjacent,6_11,none/nonadjacent,NA
62,3,1057,1,2,8,6,12,237,1,none,none,6_12,none/none,none
62,4,793,1,2,7,6,13,238,0,nonadjacent,none,6_13,nonadjacent/none,dependency
62,5,1194,1,2,12,6,14,239,0,none,none,6_14,none/none,none
62,6,921,1,2,2,6,15,240,0,none,none,6_15,none/none,none
62,7,757,1,2,10,6,16,241,0,none,adjacent,6_16,none/adjacent,NA
62,8,790,1,2,3,6,17,242,0,adjacent,none,6_17,adjacent/none,dependency
63,2,2358,1,2,11,6,20,245,0,none,nonadjacent,6_20,none/nonadjacent,NA
63,3,954,1,2,4,6,21,246,1,none,none,6_21,none/none,none
63,4,857,1,2,7,6,22,247,0,nonadjacent,none,6_22,nonadjacent/none,dependency
63,5,859,1,2,2,6,23,248,0,none,none,6_23,none/none,none
63,6,727,1,2,8,6,24,249,0,none,none,6_24,none/none,none
63,7,937,1,2,10,6,25,250,0,none,adjacent,6_25,none/adjacent,NA
63,8,2287,1,2,3,6,26,251,0,adjacent,none,6_26,adjacent/none,dependency
63,9,842,1,2,12,6,27,252,0,none,none,6_27,none/none,none
64,1,1122,1,2,2,6,28,253,0,none,none,6_28,none/none,none
64,2,1043,1,2,11,6,29,254,0,none,nonadjacent,6_29,none/nonadjacent,NA
64,3,706,1,2,12,6,30,255,1,none,none,6_30,none/none,none
64,4,851,1,2,7,6,31,256,0,nonadjacent,none,6_31,nonadjacent/none,dependency
64,5,905,1,2,4,6,32,257,0,none,none,6_32,none/none,none
64,7,1354,1,2,10,6,34,259,0,none,adjacent,6_34,none/adjacent,NA
64,8,1361,1,2,3,6,35,260,0,adjacent,none,6_35,adjacent/none,dependency
64,9,1008,1,2,8,6,36,261,0,none,none,6_36,none/none,none
65,1,897,1,2,12,6,37,262,0,none,none,6_37,none/none,none
65,2,1209,1,2,11,6,38,263,0,none,nonadjacent,6_38,none/nonadjacent,NA
65,4,1233,1,2,7,6,40,265,0,nonadjacent,none,6_40,nonadjacent/none,dependency
65,5,867,1,2,8,6,41,266,0,none,none,6_41,none/none,none
65,6,1202,1,2,4,6,42,267,0,none,none,6_42,none/none,none
65,7,969,1,2,10,6,43,268,0,none,adjacent,6_43,none/adjacent,NA
65,8,1247,1,2,3,6,44,269,0,adjacent,none,6_44,adjacent/none,dependency
65,9,1033,1,2,2,6,45,270,0,none,none,6_45,none/none,none
66,1,1264,1,2,12,7,1,271,0,none,none,7_1,none/none,none
66,2,2293,1,2,3,7,2,272,0,none,none,7_2,none/none,none
66,4,1544,1,2,11,7,4,274,0,none,nonadjacent,7_4,none/nonadjacent,NA
66,5,1131,1,2,4,7,5,275,1,none,none,7_5,none/none,none
66,6,1129,1,2,10,7,6,276,0,nonadjacent,adjacent,7_6,nonadjacent/adjacent,dependency
66,7,1464,1,2,2,7,7,277,0,adjacent,none,7_7,adjacent/none,dependency
66,8,1368,1,2,8,7,8,278,0,none,none,7_8,none/none,none
66,9,1496,1,2,7,7,9,279,0,none,none,7_9,none/none,none
67,1,935,1,2,7,7,10,280,0,none,none,7_10,none/none,none
67,2,770,1,2,12,7,11,281,0,none,none,7_11,none/none,none
67,3,4121,1,2,8,7,12,282,0,none,none,7_12,none/none,none
67,4,1050,1,2,2,7,13,283,0,none,none,7_13,none/none,none
67,5,967,1,2,10,7,14,284,0,none,adjacent,7_14,none/adjacent,NA
67,6,1136,1,2,11,7,15,285,0,adjacent,nonadjacent,7_15,adjacent/nonadjacent,dependency
67,8,850,1,2,4,7,17,287,0,nonadjacent,none,7_17,nonadjacent/none,dependency
67,9,969,1,2,3,7,18,288,0,none,none,7_18,none/none,none
68,1,1686,1,2,11,7,19,289,0,none,nonadjacent,7_19,none/nonadjacent,NA
68,2,1009,1,2,2,7,20,290,1,none,none,7_20,none/none,none
68,3,826,1,2,4,7,21,291,0,nonadjacent,none,7_21,nonadjacent/none,dependency
68,4,1528,1,2,3,7,22,292,0,none,none,7_22,none/none,none
68,6,1434,1,2,7,7,24,294,0,none,none,7_24,none/none,none
68,7,1551,1,2,10,7,25,295,0,none,adjacent,7_25,none/adjacent,NA
68,8,1122,1,2,12,7,26,296,0,adjacent,none,7_26,adjacent/none,dependency
68,9,841,1,2,8,7,27,297,0,none,none,7_27,none/none,none
69,1,1575,1,2,2,7,28,298,0,none,none,7_28,none/none,none
69,2,929,1,2,7,7,29,299,0,none,none,7_29,none/none,none
69,3,779,1,2,12,7,30,300,0,none,none,7_30,none/none,none
69,4,770,1,2,4,7,31,301,0,none,none,7_31,none/none,none
69,5,798,1,2,3,7,32,302,0,none,none,7_32,none/none,none
69,6,1047,1,2,8,7,33,303,0,none,none,7_33,none/none,none
69,7,1003,1,2,11,7,34,304,0,none,nonadjacent,7_34,none/nonadjacent,NA
69,8,865,1,2,10,7,35,305,1,none,adjacent,7_35,none/adjacent,NA
70,1,864,1,2,10,7,37,307,0,none,adjacent,7_37,none/adjacent,NA
70,2,739,1,2,8,7,38,308,0,adjacent,none,7_38,adjacent/none,dependency
70,3,610,1,2,3,7,39,309,0,none,none,7_39,none/none,none
70,4,961,1,2,7,7,40,310,0,none,none,7_40,none/none,none
70,5,891,1,2,11,7,41,311,0,none,nonadjacent,7_41,none/nonadjacent,NA
70,7,749,1,2,4,7,43,313,0,nonadjacent,none,7_43,nonadjacent/none,dependency
70,8,1133,1,2,2,7,44,314,0,none,none,7_44,none/none,none
70,9,1489,1,2,12,7,45,315,0,none,none,7_45,none/none,none
71,1,1298,1,3,4,1,1,1,0,none,none,1_1,none/none,none
71,2,1043,1,3,11,1,2,2,0,none,nonadjacent,1_2,none/nonadjacent,NA
71,3,2307,1,3,12,1,3,3,1,none,none,1_3,none/none,none
71,4,1291,1,3,7,1,4,4,0,nonadjacent,none,1_4,nonadjacent/none,dependency
71,5,1075,1,3,2,1,5,5,0,none,none,1_5,none/none,none
71,6,1251,1,3,8,1,6,6,0,none,none,1_6,none/none,none
71,7,1275,1,3,10,1,7,7,0,none,adjacent,1_7,none/adjacent,NA
71,8,971,1,3,3,1,8,8,0,adjacent,none,1_8,adjacent/none,dependency
72,2,1091,1,3,11,1,11,11,0,none,nonadjacent,1_11,none/nonadjacent,NA
72,3,890,1,3,2,1,12,12,1,none,none,1_12,none/none,none
72,4,1698,1,3,7,1,13,13,0,nonadjacent,none,1_13,nonadjacent/none,dependency
72,5,906,1,3,8,1,14,14,0,none,none,1_14,none/none,none
72,6,883,1,3,4,1,15,15,0,none,none,1_15,none/none,none
72,7,931,1,3,10,1,16,16,0,none,adjacent,1_16,none/adjacent,NA
72,8,835,1,3,3,1,17,17,0,adjacent,none,1_17,adjacent/none,dependency
72,9,1259,1,3,12,1,18,18,0,none,none,1_18,none/none,none
73,1,939,1,3,8,1,19,19,0,none,none,1_19,none/none,none
73,2,915,1,3,11,1,20,20,0,none,nonadjacent,1_20,none/nonadjacent,NA
73,4,1464,0,3,7,1,22,22,0,nonadjacent,none,1_22,nonadjacent/none,dependency
73,5,2163,1,3,12,1,23,23,0,none,none,1_23,none/none,none
73,6,922,1,3,2,1,24,24,0,none,none,1_24,none/none,none
73,7,1011,1,3,10,1,25,25,0,none,adjacent,1_25,none/adjacent,NA
73,8,1003,1,3,3,1,26,26,0,adjacent,none,1_26,adjacent/none,dependency
73,9,908,1,3,4,1,27,27,0,none,none,1_27,none/none,none
74,1,753,1,3,2,1,28,28,0,none,none,1_28,none/none,none
74,2,947,1,3,11,1,29,29,0,none,nonadjacent,1_29,none/nonadjacent,NA
74,3,1131,1,3,4,1,30,30,1,none,none,1_30,none/none,none
74,4,1651,1,3,7,1,31,31,0,nonadjacent,none,1_31,nonadjacent/none,dependency
74,6,1491,1,3,12,1,33,33,0,none,none,1_33,none/none,none
74,7,1139,1,3,10,1,34,34,0,none,adjacent,1_34,none/adjacent,NA
74,8,923,1,3,3,1,35,35,0,adjacent,none,1_35,adjacent/none,dependency
74,9,915,1,3,8,1,36,36,0,none,none,1_36,none/none,none
75,1,1447,1,3,12,1,37,37,0,none,none,1_37,none/none,none
75,2,1059,1,3,11,1,38,38,0,none,nonadjacent,1_38,none/nonadjacent,NA
75,3,971,1,3,8,1,39,39,1,none,none,1_39,none/none,none
75,4,1099,1,3,7,1,40,40,0,nonadjacent,none,1_40,nonadjacent/none,dependency
75,5,1139,1,3,4,1,41,41,0,none,none,1_41,none/none,none
75,7,923,1,3,10,1,43,43,0,none,adjacent,1_43,none/adjacent,NA
75,8,859,1,3,3,1,44,44,0,adjacent,none,1_44,adjacent/none,dependency
75,9,779,1,3,2,1,45,45,0,none,none,1_45,none/none,none
76,1,785,1,3,2,2,1,46,0,none,none,2_1,none/none,none
76,2,923,1,3,8,2,2,47,0,none,none,2_2,none/none,none
76,3,1682,1,3,10,2,3,48,0,none,adjacent,2_3,none/adjacent,NA
76,4,1019,1,3,3,2,4,49,0,adjacent,none,2_4,adjacent/none,dependency
76,5,707,1,3,4,2,5,50,0,none,none,2_5,none/none,none
76,6,963,1,3,11,2,6,51,0,none,nonadjacent,2_6,none/nonadjacent,NA
76,8,1204,1,3,7,2,8,53,0,nonadjacent,none,2_8,nonadjacent/none,dependency
76,9,1515,1,3,12,2,9,54,0,none,none,2_9,none/none,none
77,1,840,1,3,4,2,10,55,0,none,none,2_10,none/none,none
77,3,1883,1,3,10,2,12,57,0,none,adjacent,2_12,none/adjacent,NA
77,4,1027,1,3,3,2,13,58,0,adjacent,none,2_13,adjacent/none,dependency
77,5,1499,1,3,12,2,14,59,0,none,none,2_14,none/none,none
77,6,970,1,3,11,2,15,60,0,none,nonadjacent,2_15,none/nonadjacent,NA
77,7,947,1,3,2,2,16,61,1,none,none,2_16,none/none,none
77,8,876,1,3,7,2,17,62,0,nonadjacent,none,2_17,nonadjacent/none,dependency
77,9,1251,1,3,8,2,18,63,0,none,none,2_18,none/none,none
78,1,858,1,3,12,2,19,64,0,none,none,2_19,none/none,none
78,2,1003,1,3,2,2,20,65,0,none,none,2_20,none/none,none
78,3,1003,1,3,10,2,21,66,0,none,adjacent,2_21,none/adjacent,NA
78,4,835,1,3,3,2,22,67,0,adjacent,none,2_22,adjacent/none,dependency
78,5,987,1,3,8,2,23,68,0,none,none,2_23,none/none,none
78,6,867,1,3,11,2,24,69,0,none,nonadjacent,2_24,none/nonadjacent,NA
78,7,795,1,3,4,2,25,70,1,none,none,2_25,none/none,none
78,8,955,1,3,7,2,26,71,0,nonadjacent,none,2_26,nonadjacent/none,dependency
79,1,838,1,3,8,2,28,73,0,none,none,2_28,none/none,none
79,2,1275,1,3,4,2,29,74,0,none,none,2_29,none/none,none
79,3,1019,1,3,10,2,30,75,0,none,adjacent,2_30,none/adjacent,NA
79,4,979,1,3,3,2,31,76,0,adjacent,none,2_31,adjacent/none,dependency
79,6,931,1,3,11,2,33,78,0,none,nonadjacent,2_33,none/nonadjacent,NA
79,7,1131,1,3,12,2,34,79,1,none,none,2_34,none/none,none
79,8,851,1,3,7,2,35,80,0,nonadjacent,none,2_35,nonadjacent/none,dependency
79,9,890,1,3,2,2,36,81,0,none,none,2_36,none/none,none
80,2,1082,1,3,12,2,38,83,0,none,none,2_38,none/none,none
80,3,978,1,3,10,2,39,84,0,none,adjacent,2_39,none/adjacent,NA
80,4,1194,1,3,3,2,40,85,0,adjacent,none,2_40,adjacent/none,dependency
80,5,1002,1,3,2,2,41,86,0,none,none,2_41,none/none,none
80,6,906,1,3,11,2,42,87,0,none,nonadjacent,2_42,none/nonadjacent,NA
80,7,866,1,3,8,2,43,88,1,none,none,2_43,none/none,none
80,8,866,1,3,7,2,44,89,0,nonadjacent,none,2_44,nonadjacent/none,dependency
80,9,833,1,3,4,2,45,90,0,none,none,2_45,none/none,none
81,1,919,1,3,2,3,1,91,0,none,none,3_1,none/none,none
81,2,835,1,3,11,3,2,92,0,none,nonadjacent,3_2,none/nonadjacent,NA
81,3,843,1,3,8,3,3,93,1,none,none,3_3,none/none,none
81,4,835,1,3,7,3,4,94,0,nonadjacent,none,3_4,nonadjacent/none,dependency
81,5,819,1,3,4,3,5,95,0,none,none,3_5,none/none,none
81,7,1315,1,3,10,3,7,97,0,none,adjacent,3_7,none/adjacent,NA
81,8,971,1,3,3,3,8,98,0,adjacent,none,3_8,adjacent/none,dependency
81,9,1339,1,3,12,3,9,99,0,none,none,3_9,none/none,none
82,1,772,1,3,12,3,10,100,0,none,none,3_10,none/none,none
82,2,931,1,3,11,3,11,101,0,none,nonadjacent,3_11,none/nonadjacent,NA
82,3,1258,1,3,2,3,12,102,1,none,none,3_12,none/none,none
82,4,1636,1,3,7,3,13,103,0,nonadjacent,none,3_13,nonadjacent/none,dependency
82,5,859,1,3,8,3,14,104,0,none,none,3_14,none/none,none
82,6,827,1,3,4,3,15,105,0,none,none,3_15,none/none,none
82,7,1283,1,3,10,3,16,106,0,none,adjacent,3_16,none/adjacent,NA
82,8,1330,1,3,3,3,17,107,0,adjacent,none,3_17,adjacent/none,dependency
83,2,2451,1,3,11,3,20,110,0,none,nonadjacent,3_20,none/nonadjacent,NA
83,3,1067,1,3,12,3,21,111,1,none,none,3_21,none/none,none
83,4,1122,1,3,7,3,22,112,0,nonadjacent,none,3_22,nonadjacent/none,dependency
83,5,860,1,3,2,3,23,113,0,none,none,3_23,none/none,none
83,6,1203,1,3,8,3,24,114,0,none,none,3_24,none/none,none
83,7,1243,1,3,10,3,25,115,0,none,adjacent,3_25,none/adjacent,NA
83,8,1634,1,3,3,3,26,116,0,adjacent,none,3_26,adjacent/none,dependency
83,9,1003,1,3,4,3,27,117,0,none,none,3_27,none/none,none
84,1,706,1,3,4,3,28,118,0,none,none,3_28,none/none,none
84,2,811,1,3,11,3,29,119,0,none,nonadjacent,3_29,none/nonadjacent,NA
84,4,1626,1,3,7,3,31,121,0,nonadjacent,none,3_31,nonadjacent/none,dependency
84,5,1380,1,3,12,3,32,122,0,none,none,3_32,none/none,none
84,6,1347,1,3,2,3,33,123,0,none,none,3_33,none/none,none
84,7,1131,1,3,10,3,34,124,0,none,adjacent,3_34,none/adjacent,NA
84,8,1114,1,3,3,3,35,125,0,adjacent,none,3_35,adjacent/none,dependency
84,9,772,1,3,8,3,36,126,0,none,none,3_36,none/none,none
85,1,654,1,3,8,3,37,127,0,none,none,3_37,none/none,none
85,2,771,1,3,11,3,38,128,0,none,nonadjacent,3_38,none/nonadjacent,NA
85,3,779,1,3,4,3,39,129,1,none,none,3_39,none/none,none
85,4,875,1,3,7,3,40,130,0,nonadjacent,none,3_40,nonadjacent/none,dependency
85,6,803,1,3,12,3,42,132,0,none,none,3_42,none/none,none
85,7,1275,1,3,10,3,43,133,0,none,adjacent,3_43,none/adjacent,NA
85,8,979,1,3,3,3,44,134,0,adjacent,none,3_44,adjacent/none,dependency
85,9,818,1,3,2,3,45,135,0,none,none,3_45,none/none,none
86,1,729,1,3,2,4,1,136,0,none,none,4_1,none/none,none
86,2,1242,1,3,12,4,2,137,0,none,none,4_2,none/none,none
86,3,1018,1,3,10,4,3,138,0,none,adjacent,4_3,none/adjacent,NA
86,4,1426,1,3,3,4,4,139,0,adjacent,none,4_4,adjacent/none,dependency
86,5,1178,1,3,4,4,5,140,0,none,none,4_5,none/none,none
86,6,1354,1,3,11,4,6,141,0,none,nonadjacent,4_6,none/nonadjacent,NA
86,8,954,1,3,7,4,8,143,0,nonadjacent,none,4_8,nonadjacent/none,dependency
86,9,890,1,3,8,4,9,144,0,none,none,4_9,none/none,none
87,2,754,1,3,4,4,11,146,0,none,none,4_11,none/none,none
87,3,1011,1,3,10,4,12,147,0,none,adjacent,4_12,none/adjacent,NA
87,4,994,1,3,3,4,13,148,0,adjacent,none,4_13,adjacent/none,dependency
87,5,1066,0,3,2,4,14,149,0,none,none,4_14,none/none,none
87,6,1562,1,3,11,4,15,150,0,none,nonadjacent,4_15,none/nonadjacent,NA
87,7,1595,1,3,8,4,16,151,1,none,none,4_16,none/none,none
87,8,954,1,3,7,4,17,152,0,nonadjacent,none,4_17,nonadjacent/none,dependency
87,9,787,1,3,12,4,18,153,0,none,none,4_18,none/none,none
88,1,993,1,3,8,4,19,154,0,none,none,4_19,none/none,none
88,2,1388,1,3,2,4,20,155,0,none,none,4_20,none/none,none
88,3,1170,1,3,10,4,21,156,0,none,adjacent,4_21,none/adjacent,NA
88,4,1275,1,3,3,4,22,157,0,adjacent,none,4_22,adjacent/none,dependency
88,6,836,1,3,11,4,24,159,0,none,nonadjacent,4_24,none/nonadjacent,NA
88,7,1185,1,3,12,4,25,160,1,none,none,4_25,none/none,none
88,8,1955,1,3,7,4,26,161,0,nonadjacent,none,4_26,nonadjacent/none,dependency
88,9,1388,1,3,4,4,27,162,0,none,none,4_27,none/none,none
89,1,1384,1,3,4,4,28,163,0,none,none,4_28,none/none,none
89,2,1579,1,3,8,4,29,164,0,none,none,4_29,none/none,none
89,3,947,1,3,10,4,30,165,0,none,adjacent,4_30,none/adjacent,NA
89,4,794,1,3,3,4,31,166,0,adjacent,none,4_31,adjacent/none,dependency
89,5,1156,1,3,12,4,32,167,0,none,none,4_32,none/none,none
89,6,906,1,3,11,4,33,168,0,none,nonadjacent,4_33,none/nonadjacent,NA
89,7,868,1,3,2,4,34,169,1,none,none,4_34,none/none,none
89,8,851,1,3,7,4,35,170,0,nonadjacent,none,4_35,nonadjacent/none,dependency
90,1,1509,1,3,12,4,37,172,0,none,none,4_37,none/none,none
90,3,1316,1,3,10,4,39,174,0,none,adjacent,4_39,none/adjacent,NA
90,4,787,1,3,3,4,40,175,0,adjacent,none,4_40,adjacent/none,dependency
90,5,595,1,3,8,4,41,176,0,none,none,4_41,none/none,none
90,6,1667,1,3,11,4,42,177,0,none,nonadjacent,4_42,none/nonadjacent,NA
90,7,923,1,3,4,4,43,178,1,none,none,4_43,none/none,none
90,8,939,1,3,7,4,44,179,0,nonadjacent,none,4_44,nonadjacent/none,dependency
90,9,1163,1,3,2,4,45,180,0,none,none,4_45,none/none,none
91,1,1272,1,3,8,5,1,181,0,none,none,5_1,none/none,none
91,2,811,1,3,11,5,2,182,0,none,nonadjacent,5_2,none/nonadjacent,NA
91,3,747,1,3,2,5,3,183,1,none,none,5_3,none/none,none
91,4,891,1,3,7,5,4,184,0,nonadjacent,none,5_4,nonadjacent/none,dependency
91,6,2635,1,3,12,5,6,186,0,none,none,5_6,none/none,none
91,7,1403,1,3,10,5,7,187,0,none,adjacent,5_7,none/adjacent,NA
91,8,1027,1,3,3,5,8,188,0,adjacent,none,5_8,adjacent/none,dependency
91,9,371,0,3,4,5,9,189,0,none,none,5_9,none/none,none
92,1,1744,1,3,12,5,10,190,0,none,none,5_10,none/none,none
92,2,851,1,3,11,5,11,191,0,none,nonadjacent,5_11,none/nonadjacent,NA
92,4,794,1,3,7,5,13,193,0,nonadjacent,none,5_13,nonadjacent/none,dependency
92,5,1156,1,3,8,5,14,194,0,none,none,5_14,none/none,none
92,6,747,1,3,4,5,15,195,0,none,none,5_15,none/none,none
92,7,1010,1,3,10,5,16,196,0,none,adjacent,5_16,none/adjacent,NA
92,8,1900,1,3,3,5,17,197,0,adjacent,none,5_17,adjacent/none,dependency
92,9,875,1,3,2,5,18,198,0,none,none,5_18,none/none,none
93,1,1180,1,3,4,5,19,199,0,none,none,5_19,none/none,none
93,2,2035,1,3,11,5,20,200,0,none,nonadjacent,5_20,none/nonadjacent,NA
93,3,1811,1,3,8,5,21,201,1,none,none,5_21,none/none,none
93,4,1003,1,3,7,5,22,202,0,nonadjacent,none,5_22,nonadjacent/none,dependency
93,5,1659,1,3,12,5,23,203,0,none,none,5_23,none/none,none
93,6,1259,1,3,2,5,24,204,0,none,none,5_24,none/none,none
93,7,1235,1,3,10,5,25,205,0,none,adjacent,5_25,none/adjacent,NA
93,8,6691,1,3,3,5,26,206,0,adjacent,none,5_26,adjacent/none,dependency
94,2,819,1,3,11,5,29,209,0,none,nonadjacent,5_29,none/nonadjacent,NA
94,3,1595,1,3,4,5,30,210,1,none,none,5_30,none/none,none
94,4,1707,1,3,7,5,31,211,0,nonadjacent,none,5_31,nonadjacent/none,dependency
94,5,851,1,3,2,5,32,212,0,none,none,5_32,none/none,none
94,6,738,1,3,8,5,33,213,0,none,none,5_33,none/none,none
94,7,804,1,3,10,5,34,214,0,none,adjacent,5_34,none/adjacent,NA
94,8,5076,1,3,3,5,35,215,0,adjacent,none,5_35,adjacent/none,dependency
94,9,931,1,3,12,5,36,216,0,none,none,5_36,none/none,none
95,1,837,1,3,2,5,37,217,0,none,none,5_37,none/none,none
95,2,899,1,3,11,5,38,218,0,none,nonadjacent,5_38,none/nonadjacent,NA
95,3,1179,1,3,12,5,39,219,1,none,none,5_39,none/none,none
95,4,1003,1,3,7,5,40,220,0,nonadjacent,none,5_40,nonadjacent/none,dependency
95,5,1314,1,3,4,5,41,221,0,none,none,5_41,none/none,none
95,7,1115,1,3,10,5,43,223,0,none,adjacent,5_43,none/adjacent,NA
95,8,1619,1,3,3,5,44,224,0,adjacent,none,5_44,adjacent/none,dependency
95,9,859,1,3,8,5,45,225,0,none,none,5_45,none/none,none
96,2,955,1,3,8,6,2,227,0,none,none,6_2,none/none,none
96,3,1267,1,3,10,6,3,228,0,none,adjacent,6_3,none/adjacent,NA
96,4,1347,1,3,3,6,4,229,0,adjacent,none,6_4,adjacent/none,dependency
96,5,1050,1,3,12,6,5,230,0,none,none,6_5,none/none,none
96,6,1540,1,3,11,6,6,231,0,none,nonadjacent,6_6,none/nonadjacent,NA
96,7,971,1,3,2,6,7,232,1,none,none,6_7,none/none,none
96,8,1803,1,3,7,6,8,233,0,nonadjacent,none,6_8,nonadjacent/none,dependency
96,9,1371,1,3,4,6,9,234,0,none,none,6_9,none/none,none
97,1,1228,1,3,2,6,10,235,0,none,none,6_10,none/none,none
97,3,1339,1,3,10,6,12,237,0,none,adjacent,6_12,none/adjacent,NA
97,4,1795,1,3,3,6,13,238,0,adjacent,none,6_13,adjacent/none,dependency
97,5,947,1,3,8,6,14,239,0,none,none,6_14,none/none,none
97,6,1187,1,3,11,6,15,240,0,none,nonadjacent,6_15,none/nonadjacent,NA
97,7,1027,1,3,4,6,16,241,1,none,none,6_16,none/none,none
97,8,979,1,3,7,6,17,242,0,nonadjacent,none,6_17,nonadjacent/none,dependency
97,9,907,1,3,12,6,18,243,0,none,none,6_18,none/none,none
98,1,1556,1,3,12,6,19,244,0,none,none,6_19,none/none,none
98,2,771,1,3,4,6,20,245,0,none,none,6_20,none/none,none
98,3,786,1,3,10,6,21,246,0,none,adjacent,6_21,none/adjacent,NA
98,4,1338,1,3,3,6,22,247,0,adjacent,none,6_22,adjacent/none,dependency
98,5,907,1,3,2,6,23,248,0,none,none,6_23,none/none,none
98,6,923,1,3,11,6,24,249,0,none,nonadjacent,6_24,none/nonadjacent,NA
98,7,858,1,3,8,6,25,250,1,none,none,6_25,none/none,none
98,8,1002,1,3,7,6,26,251,0,nonadjacent,none,6_26,nonadjacent/none,dependency
99,1,706,1,3,4,6,28,253,0,none,none,6_28,none/none,none
99,2,834,1,3,2,6,29,254,0,none,none,6_29,none/none,none
99,3,914,1,3,10,6,30,255,0,none,adjacent,6_30,none/adjacent,NA
99,4,1738,1,3,3,6,31,256,0,adjacent,none,6_31,adjacent/none,dependency
99,6,1002,1,3,11,6,33,258,0,none,nonadjacent,6_33,none/nonadjacent,NA
99,7,1202,1,3,12,6,34,259,1,none,none,6_34,none/none,none
99,8,1131,1,3,7,6,35,260,0,nonadjacent,none,6_35,nonadjacent/none,dependency
99,9,946,1,3,8,6,36,261,0,none,none,6_36,none/none,none
100,1,827,1,3,8,6,37,262,0,none,none,6_37,none/none,none
100,2,875,1,3,12,6,38,263,0,none,none,6_38,none/none,none
100,3,1531,1,3,10,6,39,264,0,none,adjacent,6_39,none/adjacent,NA
100,4,883,1,3,3,6,40,265,0,adjacent,none,6_40,adjacent/none,dependency
100,5,1202,1,3,4,6,41,266,0,none,none,6_41,none/none,none
100,6,987,1,3,11,6,42,267,0,none,nonadjacent,6_42,none/nonadjacent,NA
100,8,1379,1,3,7,6,44,269,0,nonadjacent,none,6_44,nonadjacent/none,dependency
100,9,1122,1,3,2,6,45,270,0,none,none,6_45,none/none,none
101,1,1827,1,3,11,7,1,271,0,none,nonadjacent,7_1,none/nonadjacent,NA
101,2,867,1,3,2,7,2,272,1,none,none,7_2,none/none,none
101,3,971,1,3,4,7,3,273,0,nonadjacent,none,7_3,nonadjacent/none,dependency
101,4,1195,1,3,3,7,4,274,0,none,none,7_4,none/none,none
101,6,1051,1,3,7,7,6,276,0,none,none,7_6,none/none,none
101,7,1763,1,3,10,7,7,277,0,none,adjacent,7_7,none/adjacent,NA
101,8,1187,1,3,12,7,8,278,0,adjacent,none,7_8,adjacent/none,dependency
101,9,1291,1,3,8,7,9,279,0,none,none,7_9,none/none,none
102,1,1461,1,3,7,7,10,280,0,none,none,7_10,none/none,none
102,2,723,1,3,12,7,11,281,0,none,none,7_11,none/none,none
102,3,874,1,3,8,7,12,282,0,none,none,7_12,none/none,none
102,4,1652,1,3,2,7,13,283,0,none,none,7_13,none/none,none
102,5,1003,1,3,10,7,14,284,0,none,adjacent,7_14,none/adjacent,NA
102,6,1314,1,3,11,7,15,285,0,adjacent,nonadjacent,7_15,adjacent/nonadjacent,dependency
102,8,804,1,3,4,7,17,287,0,nonadjacent,none,7_17,nonadjacent/none,dependency
102,9,755,1,3,3,7,18,288,0,none,none,7_18,none/none,none
103,1,1598,1,3,4,7,19,289,0,none,none,7_19,none/none,none
103,3,1483,1,3,2,7,21,291,0,none,none,7_21,none/none,none
103,4,1083,1,3,12,7,22,292,0,none,none,7_22,none/none,none
103,5,843,1,3,8,7,23,293,0,none,none,7_23,none/none,none
103,6,1899,1,3,3,7,24,294,0,none,none,7_24,none/none,none
103,7,1131,1,3,7,7,25,295,0,none,none,7_25,none/none,none
103,8,1027,1,3,11,7,26,296,0,none,nonadjacent,7_26,none/nonadjacent,NA
103,9,1099,1,3,10,7,27,297,1,none,adjacent,7_27,none/adjacent,NA
104,1,1653,1,3,8,7,28,298,0,both,none,7_28,both/none,dependency
104,2,1035,1,3,4,7,29,299,0,none,none,7_29,none/none,none
104,3,1467,1,3,10,7,30,300,0,none,adjacent,7_30,none/adjacent,NA
104,5,979,1,3,2,7,32,302,0,none,none,7_32,none/none,none
104,6,1043,1,3,12,7,33,303,0,none,none,7_33,none/none,none
104,7,1283,1,3,3,7,34,304,0,none,none,7_34,none/none,none
104,8,835,1,3,7,7,35,305,0,none,none,7_35,none/none,none
104,9,747,1,3,11,7,36,306,0,none,nonadjacent,7_36,none/nonadjacent,NA
105,1,795,1,3,2,7,37,307,1,none,none,7_37,none/none,none
105,2,915,1,3,7,7,38,308,0,nonadjacent,none,7_38,nonadjacent/none,dependency
105,3,931,1,3,12,7,39,309,0,none,none,7_39,none/none,none
105,4,931,1,3,4,7,40,310,0,none,none,7_40,none/none,none
105,5,1979,1,3,3,7,41,311,0,none,none,7_41,none/none,none
105,6,1139,1,3,8,7,42,312,0,none,none,7_42,none/none,none
105,7,1107,1,3,11,7,43,313,0,none,nonadjacent,7_43,none/nonadjacent,NA
105,8,1355,1,3,10,7,44,314,1,none,adjacent,7_44,none/adjacent,NA
106,1,2580,1,4,2,1,1,1,0,none,none,1_1,none/none,none
106,2,1456,1,4,4,1,2,2,0,none,none,1_2,none/none,none
106,3,1768,1,4,10,1,3,3,0,none,adjacent,1_3,none/adjacent,NA
106,4,1033,1,4,3,1,4,4,0,adjacent,none,1_4,adjacent/none,dependency
106,6,1090,1,4,11,1,6,6,0,none,nonadjacent,1_6,none/nonadjacent,NA
106,7,1025,1,4,8,1,7,7,1,none,none,1_7,none/none,none
106,8,1879,1,4,7,1,8,8,0,nonadjacent,none,1_8,nonadjacent/none,dependency
106,9,1122,0,4,12,1,9,9,0,none,none,1_9,none/none,none
107,1,854,0,4,4,1,10,10,0,none,none,1_10,none/none,none
107,3,1105,1,4,10,1,12,12,0,none,adjacent,1_12,none/adjacent,NA
107,4,1313,1,4,3,1,13,13,0,adjacent,none,1_13,adjacent/none,dependency
107,5,1121,1,4,8,1,14,14,0,none,none,1_14,none/none,none
107,6,933,1,4,11,1,15,15,0,none,nonadjacent,1_15,none/nonadjacent,NA
107,7,1620,1,4,12,1,16,16,1,none,none,1_16,none/none,none
107,8,1360,0,4,7,1,17,17,0,nonadjacent,none,1_17,nonadjacent/none,dependency
107,9,1209,0,4,2,1,18,18,0,none,none,1_18,none/none,none
108,1,1063,1,4,8,1,19,19,0,none,none,1_19,none/none,none
108,2,1568,1,4,12,1,20,20,0,none,none,1_20,none/none,none
108,3,898,1,4,10,1,21,21,0,none,adjacent,1_21,none/adjacent,NA
108,4,1090,1,4,3,1,22,22,0,adjacent,none,1_22,adjacent/none,dependency
108,5,1192,0,4,2,1,23,23,0,none,none,1_23,none/none,none
108,6,1012,1,4,11,1,24,24,0,none,nonadjacent,1_24,none/nonadjacent,NA
108,7,937,1,4,4,1,25,25,1,none,none,1_25,none/none,none
108,8,1486,1,4,7,1,26,26,0,nonadjacent,none,1_26,nonadjacent/none,dependency
109,1,3334,1,4,12,1,28,28,0,none,none,1_28,none/none,none
109,2,881,0,4,2,1,29,29,0,none,none,1_29,none/none,none
109,3,962,1,4,10,1,30,30,0,none,adjacent,1_30,none/adjacent,NA
109,4,1170,1,4,3,1,31,31,0,adjacent,none,1_31,adjacent/none,dependency
109,5,1097,1,4,4,1,32,32,0,none,none,1_32,none/none,none
109,6,1029,1,4,11,1,33,33,0,none,nonadjacent,1_33,none/nonadjacent,NA
109,8,1199,1,4,7,1,35,35,0,nonadjacent,none,1_35,nonadjacent/none,dependency
109,9,993,1,4,8,1,36,36,0,none,none,1_36,none/none,none
110,2,1153,1,4,8,1,38,38,0,none,none,1_38,none/none,none
110,3,921,1,4,10,1,39,39,0,none,adjacent,1_39,none/adjacent,NA
110,4,977,1,4,3,1,40,40,0,adjacent,none,1_40,adjacent/none,dependency
110,5,1976,1,4,12,1,41,41,0,none,none,1_41,none/none,none
110,6,947,1,4,11,1,42,42,0,none,nonadjacent,1_42,none/nonadjacent,NA
110,7,910,0,4,2,1,43,43,1,none,none,1_43,none/none,none
110,8,898,1,4,7,1,44,44,0,nonadjacent,none,1_44,nonadjacent/none,dependency
110,9,897,1,4,4,1,45,45,0,none,none,1_45,none/none,none
111,2,1600,1,4,11,2,2,47,0,none,nonadjacent,2_2,none/nonadjacent,NA
111,3,1344,1,4,12,2,3,48,1,none,none,2_3,none/none,none
111,4,3483,1,4,7,2,4,49,0,nonadjacent,none,2_4,nonadjacent/none,dependency
111,5,972,0,4,2,2,5,50,0,none,none,2_5,none/none,none
111,6,1165,1,4,4,2,6,51,0,none,none,2_6,none/none,none
111,7,930,1,4,10,2,7,52,0,none,adjacent,2_7,none/adjacent,NA
111,8,1050,1,4,3,2,8,53,0,adjacent,none,2_8,adjacent/none,dependency
111,9,1703,1,4,8,2,9,54,0,none,none,2_9,none/none,none
112,1,1235,1,4,8,2,10,55,0,none,none,2_10,none/none,none
112,2,1184,1,4,11,2,11,56,0,none,nonadjacent,2_11,none/nonadjacent,NA
112,3,1424,0,4,2,2,12,57,1,none,none,2_12,none/none,none
112,4,2406,1,4,7,2,13,58,0,nonadjacent,none,2_13,nonadjacent/none,dependency
112,5,859,1,4,4,2,14,59,0,none,none,2_14,none/none,none
112,7,1130,1,4,10,2,16,61,0,none,adjacent,2_16,none/adjacent,NA
112,8,1361,1,4,3,2,17,62,0,adjacent,none,2_17,adjacent/none,dependency
112,9,1361,1,4,12,2,18,63,0,none,none,2_18,none/none,none
113,1,1432,1,4,4,2,19,64,0,none,none,2_19,none/none,none
113,2,1130,1,4,11,2,20,65,0,none,nonadjacent,2_20,none/nonadjacent,NA
113,3,953,1,4,8,2,21,66,1,none,none,2_21,none/none,none
113,4,2279,1,4,7,2,22,67,0,nonadjacent,none,2_22,nonadjacent/none,dependency
113,5,1102,1,4,12,2,23,68,0,none,none,2_23,none/none,none
113,6,1081,0,4,2,2,24,69,0,none,none,2_24,none/none,none
113,7,1017,1,4,10,2,25,70,0,none,adjacent,2_25,none/adjacent,NA
113,8,994,1,4,3,2,26,71,0,adjacent,none,2_26,adjacent/none,dependency
114,1,2590,1,4,2,2,28,73,0,none,none,2_28,none/none,none
114,2,1226,1,4,11,2,29,74,0,none,nonadjacent,2_29,none/nonadjacent,NA
114,4,2415,1,4,7,2,31,76,0,nonadjacent,none,2_31,nonadjacent/none,dependency
114,5,1004,1,4,8,2,32,77,0,none,none,2_32,none/none,none
114,6,937,1,4,12,2,33,78,0,none,none,2_33,none/none,none
114,7,967,1,4,10,2,34,79,0,none,adjacent,2_34,none/adjacent,NA
114,8,915,1,4,3,2,35,80,0,adjacent,none,2_35,adjacent/none,dependency
114,9,833,1,4,4,2,36,81,0,none,none,2_36,none/none,none
115,1,1361,1,4,12,2,37,82,0,none,none,2_37,none/none,none
115,2,986,1,4,11,2,38,83,0,none,nonadjacent,2_38,none/nonadjacent,NA
115,3,905,1,4,4,2,39,84,1,none,none,2_39,none/none,none
115,4,1265,1,4,7,2,40,85,0,nonadjacent,none,2_40,nonadjacent/none,dependency
115,6,775,1,4,8,2,42,87,0,none,none,2_42,none/none,none
115,7,829,1,4,10,2,43,88,0,none,adjacent,2_43,none/adjacent,NA
115,8,967,1,4,3,2,44,89,0,adjacent,none,2_44,adjacent/none,dependency
115,9,817,0,4,2,2,45,90,0,none,none,2_45,none/none,none
116,2,770,1,4,4,3,2,92,0,none,none,3_2,none/none,none
116,3,634,1,4,10,3,3,93,0,none,adjacent,3_3,none/adjacent,NA
116,4,1961,1,4,3,3,4,94,0,adjacent,none,3_4,adjacent/none,dependency
116,5,985,1,4,12,3,5,95,0,none,none,3_5,none/none,none
116,6,892,1,4,11,3,6,96,0,none,nonadjacent,3_6,none/nonadjacent,NA
116,7,1667,1,4,2,3,7,97,1,none,none,3_7,none/none,none
116,8,1177,1,4,7,3,8,98,0,nonadjacent,none,3_8,nonadjacent/none,dependency
116,9,1192,1,4,8,3,9,99,0,none,none,3_9,none/none,none
117,1,2012,1,4,4,3,10,100,0,none,none,3_10,none/none,none
117,2,977,1,4,2,3,11,101,0,none,none,3_11,none/none,none
117,3,2317,1,4,10,3,12,102,0,none,adjacent,3_12,none/adjacent,NA
117,4,1050,1,4,3,3,13,103,0,adjacent,none,3_13,adjacent/none,dependency
117,5,1019,1,4,8,3,14,104,0,none,none,3_14,none/none,none
117,6,1234,1,4,11,3,15,105,0,none,nonadjacent,3_15,none/nonadjacent,NA
117,7,920,1,4,12,3,16,106,1,none,none,3_16,none/none,none
117,8,1439,1,4,7,3,17,107,0,nonadjacent,none,3_17,nonadjacent/none,dependency
118,1,1001,1,4,8,3,19,109,0,none,none,3_19,none/none,none
118,3,1735,1,4,10,3,21,111,0,none,adjacent,3_21,none/adjacent,NA
118,4,1194,1,4,3,3,22,112,0,adjacent,none,3_22,adjacent/none,dependency
118,5,1384,0,4,2,3,23,113,0,none,none,3_23,none/none,none
118,6,2138,1,4,11,3,24,114,0,none,nonadjacent,3_24,none/nonadjacent,NA
118,7,792,1,4,4,3,25,115,1,none,none,3_25,none/none,none
118,8,832,1,4,7,3,26,116,0,nonadjacent,none,3_26,nonadjacent/none,dependency
118,9,914,1,4,12,3,27,117,0,none,none,3_27,none/none,none
119,1,1221,1,4,2,3,28,118,0,none,none,3_28,none/none,none
119,2,2007,1,4,12,3,29,119,0,none,none,3_29,none/none,none
119,3,818,1,4,10,3,30,120,0,none,adjacent,3_30,none/adjacent,NA
119,4,914,1,4,3,3,31,121,0,adjacent,none,3_31,adjacent/none,dependency
119,6,1131,1,4,11,3,33,123,0,none,nonadjacent,3_33,none/nonadjacent,NA
119,7,842,1,4,8,3,34,124,1,none,none,3_34,none/none,none
119,8,928,1,4,7,3,35,125,0,nonadjacent,none,3_35,nonadjacent/none,dependency
119,9,928,1,4,4,3,36,126,0,none,none,3_36,none/none,none
120,1,1014,1,4,12,3,37,127,0,none,none,3_37,none/none,none
120,2,840,1,4,8,3,38,128,0,none,none,3_38,none/none,none
120,3,1225,1,4,10,3,39,129,0,none,adjacent,3_39,none/adjacent,NA
120,4,954,1,4,3,3,40,130,0,adjacent,none,3_40,adjacent/none,dependency
120,5,826,1,4,4,3,41,131,0,none,none,3_41,none/none,none
120,6,936,1,4,11,3,42,132,0,none,nonadjacent,3_42,none/nonadjacent,NA
120,8,966,1,4,7,3,44,134,0,nonadjacent,none,3_44,nonadjacent/none,dependency
120,9,1368,1,4,2,3,45,135,0,none,none,3_45,none/none,none
121,1,1467,1,4,12,4,1,136,0,none,none,4_1,none/none,none
121,2,1122,1,4,11,4,2,137,0,none,nonadjacent,4_2,none/nonadjacent,NA
121,3,1551,1,4,2,4,3,138,1,none,none,4_3,none/none,none
121,4,922,1,4,7,4,4,139,0,nonadjacent,none,4_4,nonadjacent/none,dependency
121,5,898,1,4,4,4,5,140,0,none,none,4_5,none/none,none
121,7,838,1,4,10,4,7,142,0,none,adjacent,4_7,none/adjacent,NA
121,8,1161,1,4,3,4,8,143,0,adjacent,none,4_8,adjacent/none,dependency
121,9,985,1,4,8,4,9,144,0,none,none,4_9,none/none,none
122,2,1232,1,4,11,4,11,146,0,none,nonadjacent,4_11,none/nonadjacent,NA
122,3,938,1,4,8,4,12,147,1,none,none,4_12,none/none,none
122,4,1280,1,4,7,4,13,148,0,nonadjacent,none,4_13,nonadjacent/none,dependency
122,5,738,1,4,12,4,14,149,0,none,none,4_14,none/none,none
122,6,1362,1,4,2,4,15,150,0,none,none,4_15,none/none,none
122,7,882,1,4,10,4,16,151,0,none,adjacent,4_16,none/adjacent,NA
122,8,992,1,4,3,4,17,152,0,adjacent,none,4_17,adjacent/none,dependency
122,9,937,1,4,4,4,18,153,0,none,none,4_18,none/none,none
123,1,945,1,4,2,4,19,154,0,none,none,4_19,none/none,none
123,2,1058,1,4,11,4,20,155,0,none,nonadjacent,4_20,none/nonadjacent,NA
123,3,1152,1,4,4,4,21,156,1,none,none,4_21,none/none,none
123,4,793,1,4,7,4,22,157,0,nonadjacent,none,4_22,nonadjacent/none,dependency
123,6,729,1,4,8,4,24,159,0,none,none,4_24,none/none,none
123,7,725,1,4,10,4,25,160,0,none,adjacent,4_25,none/adjacent,NA
123,8,966,1,4,3,4,26,161,0,adjacent,none,4_26,adjacent/none,dependency
123,9,738,1,4,12,4,27,162,0,none,none,4_27,none/none,none
124,1,777,1,4,8,4,28,163,0,none,none,4_28,none/none,none
124,2,961,1,4,11,4,29,164,0,none,nonadjacent,4_29,none/nonadjacent,NA
124,3,1065,1,4,12,4,30,165,1,none,none,4_30,none/none,none
124,4,969,1,4,7,4,31,166,0,nonadjacent,none,4_31,nonadjacent/none,dependency
124,5,1057,1,4,2,4,32,167,0,none,none,4_32,none/none,none
124,6,827,1,4,4,4,33,168,0,none,none,4_33,none/none,none
124,7,814,1,4,10,4,34,169,0,none,adjacent,4_34,none/adjacent,NA
124,8,954,1,4,3,4,35,170,0,adjacent,none,4_35,adjacent/none,dependency
125,1,2967,1,4,4,4,37,172,0,none,none,4_37,none/none,none
125,2,1186,1,4,11,4,38,173,0,none,nonadjacent,4_38,none/nonadjacent,NA
125,4,897,1,4,7,4,40,175,0,nonadjacent,none,4_40,nonadjacent/none,dependency
125,5,1201,1,4,8,4,41,176,0,none,none,4_41,none/none,none
125,6,917,1,4,12,4,42,177,0,none,none,4_42,none/none,none
125,7,909,1,4,10,4,43,178,0,none,adjacent,4_43,none/adjacent,NA
125,8,849,1,4,3,4,44,179,0,adjacent,none,4_44,adjacent/none,dependency
125,9,977,1,4,2,4,45,180,0,none,none,4_45,none/none,none
126,1,885,1,4,4,5,1,181,0,none,none,5_1,none/none,none
126,2,1146,0,4,12,5,2,182,0,none,none,5_2,none/none,none
126,3,1535,1,4,10,5,3,183,0,none,adjacent,5_3,none/adjacent,NA
126,4,1258,1,4,3,5,4,184,0,adjacent,none,5_4,adjacent/none,dependency
126,6,718,1,4,11,5,6,186,0,none,nonadjacent,5_6,none/nonadjacent,NA
126,7,705,1,4,8,5,7,187,1,none,none,5_7,none/none,none
126,8,784,1,4,7,5,8,188,0,nonadjacent,none,5_8,nonadjacent/none,dependency
126,9,1146,1,4,2,5,9,189,0,none,none,5_9,none/none,none
127,1,1077,1,4,12,5,10,190,0,none,none,5_10,none/none,none
127,3,1065,1,4,10,5,12,192,0,none,adjacent,5_12,none/adjacent,NA
127,4,1393,1,4,3,5,13,193,0,adjacent,none,5_13,adjacent/none,dependency
127,5,1113,1,4,2,5,14,194,0,none,none,5_14,none/none,none
127,6,1073,1,4,11,5,15,195,0,none,nonadjacent,5_15,none/nonadjacent,NA
127,7,3873,1,4,4,5,16,196,1,none,none,5_16,none/none,none
127,8,1113,1,4,7,5,17,197,0,nonadjacent,none,5_17,nonadjacent/none,dependency
127,9,898,1,4,8,5,18,198,0,none,none,5_18,none/none,none
128,1,3978,1,4,8,5,19,199,0,none,none,5_19,none/none,none
128,2,705,1,4,4,5,20,200,0,none,none,5_20,none/none,none
128,3,883,1,4,10,5,21,201,0,none,adjacent,5_21,none/adjacent,NA
128,4,1193,0,4,3,5,22,202,0,adjacent,none,5_22,adjacent/none,dependency
128,5,1664,1,4,12,5,23,203,0,none,none,5_23,none/none,none
128,6,956,1,4,11,5,24,204,0,none,nonadjacent,5_24,none/nonadjacent,NA
128,7,946,1,4,2,5,25,205,1,none,none,5_25,none/none,none
128,8,1433,1,4,7,5,26,206,0,nonadjacent,none,5_26,nonadjacent/none,dependency
129,1,917,1,4,2,5,28,208,0,none,none,5_28,none/none,none
129,2,1416,1,4,8,5,29,209,0,none,none,5_29,none/none,none
129,3,970,1,4,10,5,30,210,0,none,adjacent,5_30,none/adjacent,NA
129,4,1225,1,4,3,5,31,211,0,adjacent,none,5_31,adjacent/none,dependency
129,5,1024,1,4,4,5,32,212,0,none,none,5_32,none/none,none
129,6,1306,1,4,11,5,33,213,0,none,nonadjacent,5_33,none/nonadjacent,NA
129,8,1286,1,4,7,5,35,215,0,nonadjacent,none,5_35,nonadjacent/none,dependency
129,9,945,1,4,12,5,36,216,0,none,none,5_36,none/none,none
130,2,913,1,4,2,5,38,218,0,none,none,5_38,none/none,none
130,3,769,1,4,10,5,39,219,0,none,adjacent,5_39,none/adjacent,NA
130,4,946,1,4,3,5,40,220,0,adjacent,none,5_40,adjacent/none,dependency
130,5,2270,1,4,8,5,41,221,0,none,none,5_41,none/none,none
130,6,884,1,4,11,5,42,222,0,none,nonadjacent,5_42,none/nonadjacent,NA
130,7,1316,1,4,12,5,43,223,1,none,none,5_43,none/none,none
130,8,1001,1,4,7,5,44,224,0,nonadjacent,none,5_44,nonadjacent/none,dependency
130,9,865,1,4,4,5,45,225,0,none,none,5_45,none/none,none
131,1,1279,1,4,4,6,1,226,0,none,none,6_1,none/none,none
131,2,786,1,4,11,6,2,227,0,none,nonadjacent,6_2,none/nonadjacent,NA
131,3,944,1,4,2,6,3,228,1,none,none,6_3,none/none,none
131,4,2167,1,4,7,6,4,229,0,nonadjacent,none,6_4,nonadjacent/none,dependency
131,5,993,1,4,8,6,5,230,0,none,none,6_5,none/none,none
131,6,1005,1,4,12,6,6,231,0,none,none,6_6,none/none,none
131,7,905,1,4,10,6,7,232,0,none,adjacent,6_7,none/adjacent,NA
131,8,1272,1,4,3,6,8,233,0,adjacent,none,6_8,adjacent/none,dependency
132,1,1315,1,4,12,6,10,235,0,none,none,6_10,none/none,none
132,2,1289,1,4,11,6,11,236,0,none,nonadjacent,6_11,none/nonadjacent,NA
132,3,1224,1,4,8,6,12,237,1,none,none,6_12,none/none,none
132,4,874,1,4,7,6,13,238,0,nonadjacent,none,6_13,nonadjacent/none,dependency
132,5,1105,1,4,4,6,14,239,0,none,none,6_14,none/none,none
132,7,1105,1,4,10,6,16,241,0,none,adjacent,6_16,none/adjacent,NA
132,8,1177,1,4,3,6,17,242,0,adjacent,none,6_17,adjacent/none,dependency
132,9,1002,1,4,2,6,18,243,0,none,none,6_18,none/none,none
133,1,868,1,4,8,6,19,244,0,none,none,6_19,none/none,none
133,2,4297,1,4,11,6,20,245,0,none,nonadjacent,6_20,none/nonadjacent,NA
133,4,798,1,4,7,6,22,247,0,nonadjacent,none,6_22,nonadjacent/none,dependency
133,5,1033,1,4,2,6,23,248,0,none,none,6_23,none/none,none
133,6,754,1,4,4,6,24,249,0,none,none,6_24,none/none,none
133,7,777,1,4,10,6,25,250,0,none,adjacent,6_25,none/adjacent,NA
133,8,1689,1,4,3,6,26,251,0,adjacent,none,6_26,adjacent/none,dependency
133,9,1025,1,4,12,6,27,252,0,none,none,6_27,none/none,none
134,2,1210,1,4,11,6,29,254,0,none,nonadjacent,6_29,none/nonadjacent,NA
134,3,1280,1,4,4,6,30,255,1,none,none,6_30,none/none,none
134,4,1010,1,4,7,6,31,256,0,nonadjacent,none,6_31,nonadjacent/none,dependency
134,5,1018,1,4,12,6,32,257,0,none,none,6_32,none/none,none
134,6,789,1,4,2,6,33,258,0,none,none,6_33,none/none,none
134,7,910,1,4,10,6,34,259,0,none,adjacent,6_34,none/adjacent,NA
134,8,1017,1,4,3,6,35,260,0,adjacent,none,6_35,adjacent/none,dependency
134,9,2191,1,4,8,6,36,261,0,none,none,6_36,none/none,none
135,1,2180,1,4,2,6,37,262,0,none,none,6_37,none/none,none
135,2,3117,1,4,11,6,38,263,0,none,nonadjacent,6_38,none/nonadjacent,NA
135,3,1297,1,4,12,6,39,264,1,none,none,6_39,none/none,none
135,4,1895,1,4,7,6,40,265,0,nonadjacent,none,6_40,nonadjacent/none,dependency
135,6,2323,1,4,8,6,42,267,0,none,none,6_42,none/none,none
135,7,3683,1,4,10,6,43,268,0,none,adjacent,6_43,none/adjacent,NA
135,8,1010,1,4,3,6,44,269,0,adjacent,none,6_44,adjacent/none,dependency
135,9,889,1,4,4,6,45,270,0,none,none,6_45,none/none,none
136,1,1500,1,4,4,7,1,271,0,none,none,7_1,none/none,none
136,3,954,1,4,2,7,3,273,0,none,none,7_3,none/none,none
136,4,977,1,4,12,7,4,274,0,none,none,7_4,none/none,none
136,5,4399,1,4,8,7,5,275,0,none,none,7_5,none/none,none
136,6,1129,1,4,3,7,6,276,0,none,none,7_6,none/none,none
136,7,2595,1,4,7,7,7,277,0,none,none,7_7,none/none,none
136,8,1033,1,4,11,7,8,278,0,none,nonadjacent,7_8,none/nonadjacent,NA
136,9,1256,1,4,10,7,9,279,1,none,adjacent,7_9,none/adjacent,NA
137,1,1456,1,4,3,7,10,280,0,both,none,7_10,both/none,dependency
137,2,1024,1,4,10,7,11,281,0,none,adjacent,7_11,none/adjacent,NA
137,3,1025,1,4,11,7,12,282,0,adjacent,nonadjacent,7_12,adjacent/nonadjacent,dependency
137,4,1935,1,4,8,7,13,283,1,none,none,7_13,none/none,none
137,5,2493,1,4,7,7,14,284,0,nonadjacent,none,7_14,nonadjacent/none,dependency
137,6,1060,1,4,4,7,15,285,0,none,none,7_15,none/none,none
137,7,1680,1,4,12,7,16,286,0,none,none,7_16,none/none,none
137,9,1049,1,4,2,7,18,288,0,none,none,7_18,none/none,none
138,1,1181,1,4,2,7,19,289,0,none,none,7_19,none/none,none
138,2,1065,1,4,7,7,20,290,0,none,none,7_20,none/none,none
138,3,1752,1,4,12,7,21,291,0,none,none,7_21,none/none,none
138,4,1232,1,4,4,7,22,292,0,none,none,7_22,none/none,none
138,5,1212,1,4,3,7,23,293,0,none,none,7_23,none/none,none
138,6,1208,1,4,8,7,24,294,0,none,none,7_24,none/none,none
138,7,1361,1,4,11,7,25,295,0,none,nonadjacent,7_25,none/nonadjacent,NA
138,8,1153,1,4,10,7,26,296,1,none,adjacent,7_26,none/adjacent,NA
139,1,873,1,4,10,7,28,298,0,none,adjacent,7_28,none/adjacent,NA
139,2,1121,1,4,8,7,29,299,0,adjacent,none,7_29,adjacent/none,dependency
139,3,851,1,4,3,7,30,300,0,none,none,7_30,none/none,none
139,4,2102,0,4,7,7,31,301,0,none,none,7_31,none/none,none
139,5,2535,1,4,11,7,32,302,0,none,nonadjacent,7_32,none/nonadjacent,NA
139,7,946,1,4,4,7,34,304,0,nonadjacent,none,7_34,nonadjacent/none,dependency
139,8,906,1,4,2,7,35,305,0,none,none,7_35,none/none,none
139,9,1329,1,4,12,7,36,306,0,none,none,7_36,none/none,none
140,1,785,1,4,7,7,37,307,0,none,none,7_37,none/none,none
140,2,1114,1,4,12,7,38,308,0,none,none,7_38,none/none,none
140,3,841,1,4,8,7,39,309,0,none,none,7_39,none/none,none
140,4,954,1,4,2,7,40,310,0,none,none,7_40,none/none,none
140,5,907,1,4,10,7,41,311,0,none,adjacent,7_41,none/adjacent,NA
140,6,1321,1,4,11,7,42,312,0,adjacent,nonadjacent,7_42,adjacent/nonadjacent,dependency
140,8,1105,1,4,4,7,44,314,0,nonadjacent,none,7_44,nonadjacent/none,dependency
140,9,1074,1,4,3,7,45,315,0,none,none,7_45,none/none,none
141,1,2643,1,5,4,1,1,1,0,none,none,1_1,none/none,none
141,2,1482,1,5,11,1,2,2,0,none,nonadjacent,1_2,none/nonadjacent,NA
141,3,1506,1,5,8,1,3,3,1,none,none,1_3,none/none,none
141,4,1410,1,5,7,1,4,4,0,nonadjacent,none,1_4,nonadjacent/none,dependency
141,5,1002,1,5,12,1,5,5,0,none,none,1_5,none/none,none
141,6,1866,1,5,2,1,6,6,0,none,none,1_6,none/none,none
141,7,1291,1,5,10,1,7,7,0,none,adjacent,1_7,none/adjacent,NA
141,8,1210,1,5,3,1,8,8,0,adjacent,none,1_8,adjacent/none,dependency
142,1,1698,1,5,8,1,10,10,0,none,none,1_10,none/none,none
142,2,1083,1,5,11,1,11,11,0,none,nonadjacent,1_11,none/nonadjacent,NA
142,3,1261,1,5,2,1,12,12,1,none,none,1_12,none/none,none
142,4,2521,1,5,7,1,13,13,0,nonadjacent,none,1_13,nonadjacent/none,dependency
142,5,2643,1,5,4,1,14,14,0,none,none,1_14,none/none,none
142,7,1123,0,5,10,1,16,16,0,none,adjacent,1_16,none/adjacent,NA
142,8,2083,1,5,3,1,17,17,0,adjacent,none,1_17,adjacent/none,dependency
142,9,1139,1,5,12,1,18,18,0,none,none,1_18,none/none,none
143,1,1112,1,5,2,1,19,19,0,none,none,1_19,none/none,none
143,2,1003,1,5,11,1,20,20,0,none,nonadjacent,1_20,none/nonadjacent,NA
143,4,859,1,5,7,1,22,22,0,nonadjacent,none,1_22,nonadjacent/none,dependency
143,5,939,1,5,8,1,23,23,0,none,none,1_23,none/none,none
143,6,1427,1,5,12,1,24,24,0,none,none,1_24,none/none,none
143,7,1116,1,5,10,1,25,25,0,none,adjacent,1_25,none/adjacent,NA
143,8,1027,1,5,3,1,26,26,0,adjacent,none,1_26,adjacent/none,dependency
143,9,2179,1,5,4,1,27,27,0,none,none,1_27,none/none,none
144,2,827,1,5,11,1,29,29,0,none,nonadjacent,1_29,none/nonadjacent,NA
144,3,899,1,5,12,1,30,30,1,none,none,1_30,none/none,none
144,4,947,1,5,7,1,31,31,0,nonadjacent,none,1_31,nonadjacent/none,dependency
144,5,1315,1,5,2,1,32,32,0,none,none,1_32,none/none,none
144,6,1067,1,5,4,1,33,33,0,none,none,1_33,none/none,none
144,7,1003,1,5,10,1,34,34,0,none,adjacent,1_34,none/adjacent,NA
144,8,1116,1,5,3,1,35,35,0,adjacent,none,1_35,adjacent/none,dependency
144,9,842,1,5,8,1,36,36,0,none,none,1_36,none/none,none
145,1,837,1,5,12,1,37,37,0,none,none,1_37,none/none,none
145,2,707,1,5,11,1,38,38,0,none,nonadjacent,1_38,none/nonadjacent,NA
145,3,1451,1,5,4,1,39,39,1,none,none,1_39,none/none,none
145,4,795,1,5,7,1,40,40,0,nonadjacent,none,1_40,nonadjacent/none,dependency
145,6,900,1,5,8,1,42,42,0,none,none,1_42,none/none,none
145,7,1235,1,5,10,1,43,43,0,none,adjacent,1_43,none/adjacent,NA
145,8,1059,1,5,3,1,44,44,0,adjacent,none,1_44,adjacent/none,dependency
145,9,811,1,5,2,1,45,45,0,none,none,1_45,none/none,none
146,1,2769,1,5,4,2,1,46,0,none,none,2_1,none/none,none
146,3,1043,1,5,10,2,3,48,0,none,adjacent,2_3,none/adjacent,NA
146,4,1067,1,5,3,2,4,49,0,adjacent,none,2_4,adjacent/none,dependency
146,5,1035,1,5,8,2,5,50,0,none,none,2_5,none/none,none
146,6,803,1,5,11,2,6,51,0,none,nonadjacent,2_6,none/nonadjacent,NA
146,7,1091,1,5,12,2,7,52,1,none,none,2_7,none/none,none
146,8,811,1,5,7,2,8,53,0,nonadjacent,none,2_8,nonadjacent/none,dependency
146,9,1323,1,5,2,2,9,54,0,none,none,2_9,none/none,none
147,1,803,1,5,12,2,10,55,0,none,none,2_10,none/none,none
147,2,763,1,5,2,2,11,56,0,none,none,2_11,none/none,none
147,3,788,1,5,10,2,12,57,0,none,adjacent,2_12,none/adjacent,NA
147,4,890,1,5,3,2,13,58,0,adjacent,none,2_13,adjacent/none,dependency
147,5,1578,1,5,4,2,14,59,0,none,none,2_14,none/none,none
147,6,787,1,5,11,2,15,60,0,none,nonadjacent,2_15,none/nonadjacent,NA
147,8,804,1,5,7,2,17,62,0,nonadjacent,none,2_17,nonadjacent/none,dependency
147,9,859,1,5,8,2,18,63,0,none,none,2_18,none/none,none
148,2,1083,1,5,8,2,20,65,0,none,none,2_20,none/none,none
148,3,1035,1,5,10,2,21,66,0,none,adjacent,2_21,none/adjacent,NA
148,4,883,1,5,3,2,22,67,0,adjacent,none,2_22,adjacent/none,dependency
148,5,899,1,5,12,2,23,68,0,none,none,2_23,none/none,none
148,6,851,1,5,11,2,24,69,0,none,nonadjacent,2_24,none/nonadjacent,NA
148,7,787,1,5,2,2,25,70,1,none,none,2_25,none/none,none
148,8,947,1,5,7,2,26,71,0,nonadjacent,none,2_26,nonadjacent/none,dependency
148,9,835,1,5,4,2,27,72,0,none,none,2_27,none/none,none
149,1,1036,1,5,8,2,28,73,0,none,none,2_28,none/none,none
149,2,817,1,5,12,2,29,74,0,none,none,2_29,none/none,none
149,3,2010,1,5,10,2,30,75,0,none,adjacent,2_30,none/adjacent,NA
149,4,994,1,5,3,2,31,76,0,adjacent,none,2_31,adjacent/none,dependency
149,5,706,1,5,2,2,32,77,0,none,none,2_32,none/none,none
149,6,938,1,5,11,2,33,78,0,none,nonadjacent,2_33,none/nonadjacent,NA
149,7,1066,1,5,4,2,34,79,1,none,none,2_34,none/none,none
149,8,810,1,5,7,2,35,80,0,nonadjacent,none,2_35,nonadjacent/none,dependency
150,1,651,1,5,2,2,37,82,0,none,none,2_37,none/none,none
150,2,3315,1,5,4,2,38,83,0,none,none,2_38,none/none,none
150,3,1329,1,5,10,2,39,84,0,none,adjacent,2_39,none/adjacent,NA
150,4,1082,1,5,3,2,40,85,0,adjacent,none,2_40,adjacent/none,dependency
150,6,963,1,5,11,2,42,87,0,none,nonadjacent,2_42,none/nonadjacent,NA
150,7,874,1,5,8,2,43,88,1,none,none,2_43,none/none,none
150,8,849,1,5,7,2,44,89,0,nonadjacent,none,2_44,nonadjacent/none,dependency
150,9,722,1,5,12,2,45,90,0,none,none,2_45,none/none,none
151,1,741,1,5,8,3,1,91,0,none,none,3_1,none/none,none
151,2,860,1,5,11,3,2,92,0,none,nonadjacent,3_2,none/nonadjacent,NA
151,3,923,1,5,12,3,3,93,1,none,none,3_3,none/none,none
151,4,827,1,5,7,3,4,94,0,nonadjacent,none,3_4,nonadjacent/none,dependency
151,5,706,1,5,2,3,5,95,0,none,none,3_5,none/none,none
151,6,3292,1,5,4,3,6,96,0,none,none,3_6,none/none,none
151,7,914,1,5,10,3,7,97,0,none,adjacent,3_7,none/adjacent,NA
151,8,979,1,5,3,3,8,98,0,adjacent,none,3_8,adjacent/none,dependency
152,1,751,1,5,2,3,10,100,0,none,none,3_10,none/none,none
152,2,778,1,5,11,3,11,101,0,none,nonadjacent,3_11,none/nonadjacent,NA
152,3,1140,1,5,4,3,12,102,1,none,none,3_12,none/none,none
152,4,730,1,5,7,3,13,103,0,nonadjacent,none,3_13,nonadjacent/none,dependency
152,6,1115,1,5,8,3,15,105,0,none,none,3_15,none/none,none
152,7,1051,1,5,10,3,16,106,0,none,adjacent,3_16,none/adjacent,NA
152,8,1388,1,5,3,3,17,107,0,adjacent,none,3_17,adjacent/none,dependency
152,9,714,1,5,12,3,18,108,0,none,none,3_18,none/none,none
153,1,2358,1,5,4,3,19,109,0,none,none,3_19,none/none,none
153,2,698,1,5,11,3,20,110,0,none,nonadjacent,3_20,none/nonadjacent,NA
153,4,819,1,5,7,3,22,112,0,nonadjacent,none,3_22,nonadjacent/none,dependency
153,5,1099,1,5,8,3,23,113,0,none,none,3_23,none/none,none
153,6,1203,1,5,12,3,24,114,0,none,none,3_24,none/none,none
153,7,955,1,5,10,3,25,115,0,none,adjacent,3_25,none/adjacent,NA
153,8,883,1,5,3,3,26,116,0,adjacent,none,3_26,adjacent/none,dependency
153,9,723,1,5,2,3,27,117,0,none,none,3_27,none/none,none
154,1,961,1,5,12,3,28,118,0,none,none,3_28,none/none,none
154,2,908,1,5,11,3,29,119,0,none,nonadjacent,3_29,none/nonadjacent,NA
154,3,1011,1,5,2,3,30,120,1,none,none,3_30,none/none,none
154,4,923,1,5,7,3,31,121,0,nonadjacent,none,3_31,nonadjacent/none,dependency
154,5,1386,1,5,4,3,32,122,0,none,none,3_32,none/none,none
154,7,780,1,5,10,3,34,124,0,none,adjacent,3_34,none/adjacent,NA
154,8,850,1,5,3,3,35,125,0,adjacent,none,3_35,adjacent/none,dependency
154,9,1252,1,5,8,3,36,126,0,none,none,3_36,none/none,none
155,2,867,1,5,11,3,38,128,0,none,nonadjacent,3_38,none/nonadjacent,NA
155,3,875,1,5,8,3,39,129,1,none,none,3_39,none/none,none
155,4,883,1,5,7,3,40,130,0,nonadjacent,none,3_40,nonadjacent/none,dependency
155,5,796,1,5,12,3,41,131,0,none,none,3_41,none/none,none
155,6,915,1,5,2,3,42,132,0,none,none,3_42,none/none,none
155,7,1242,1,5,10,3,43,133,0,none,adjacent,3_43,none/adjacent,NA
155,8,1315,1,5,3,3,44,134,0,adjacent,none,3_44,adjacent/none,dependency
155,9,2484,1,5,4,3,45,135,0,none,none,3_45,none/none,none
156,1,1032,1,5,12,4,1,136,0,none,none,4_1,none/none,none
156,2,777,1,5,8,4,2,137,0,none,none,4_2,none/none,none
156,3,1010,1,5,10,4,3,138,0,none,adjacent,4_3,none/adjacent,NA
156,4,842,1,5,3,4,4,139,0,adjacent,none,4_4,adjacent/none,dependency
156,5,1114,1,5,4,4,5,140,0,none,none,4_5,none/none,none
156,6,1114,1,5,11,4,6,141,0,none,nonadjacent,4_6,none/nonadjacent,NA
156,8,898,1,5,7,4,8,143,0,nonadjacent,none,4_8,nonadjacent/none,dependency
156,9,754,1,5,2,4,9,144,0,none,none,4_9,none/none,none
157,1,739,1,5,8,4,10,145,0,none,none,4_10,none/none,none
157,3,1211,1,5,10,4,12,147,0,none,adjacent,4_12,none/adjacent,NA
157,4,898,1,5,3,4,13,148,0,adjacent,none,4_13,adjacent/none,dependency
157,5,753,1,5,2,4,14,149,0,none,none,4_14,none/none,none
157,6,930,1,5,11,4,15,150,0,none,nonadjacent,4_15,none/nonadjacent,NA
157,7,954,1,5,4,4,16,151,1,none,none,4_16,none/none,none
157,8,794,1,5,7,4,17,152,0,nonadjacent,none,4_17,nonadjacent/none,dependency
157,9,738,1,5,12,4,18,153,0,none,none,4_18,none/none,none
158,1,1672,1,5,4,4,19,154,0,none,none,4_19,none/none,none
158,2,778,1,5,2,4,20,155,0,none,none,4_20,none/none,none
158,3,1146,1,5,10,4,21,156,0,none,adjacent,4_21,none/adjacent,NA
158,4,898,1,5,3,4,22,157,0,adjacent,none,4_22,adjacent/none,dependency
158,5,1283,1,5,8,4,23,158,0,none,none,4_23,none/none,none
158,6,819,1,5,11,4,24,159,0,none,nonadjacent,4_24,none/nonadjacent,NA
158,7,1243,1,5,12,4,25,160,1,none,none,4_25,none/none,none
158,8,1043,1,5,7,4,26,161,0,nonadjacent,none,4_26,nonadjacent/none,dependency
159,1,756,1,5,2,4,28,163,0,none,none,4_28,none/none,none
159,2,898,0,5,12,4,29,164,0,none,none,4_29,none/none,none
159,3,1683,1,5,10,4,30,165,0,none,adjacent,4_30,none/adjacent,NA
159,4,819,1,5,3,4,31,166,0,adjacent,none,4_31,adjacent/none,dependency
159,6,738,1,5,11,4,33,168,0,none,nonadjacent,4_33,none/nonadjacent,NA
159,7,1028,1,5,8,4,34,169,1,none,none,4_34,none/none,none
159,8,1754,1,5,7,4,35,170,0,nonadjacent,none,4_35,nonadjacent/none,dependency
159,9,3131,1,5,4,4,36,171,0,none,none,4_36,none/none,none
160,2,811,1,5,4,4,38,173,0,none,none,4_38,none/none,none
160,3,995,1,5,10,4,39,174,0,none,adjacent,4_39,none/adjacent,NA
160,4,804,1,5,3,4,40,175,0,adjacent,none,4_40,adjacent/none,dependency
160,5,1578,1,5,12,4,41,176,0,none,none,4_41,none/none,none
160,6,1139,1,5,11,4,42,177,0,none,nonadjacent,4_42,none/nonadjacent,NA
160,7,667,1,5,2,4,43,178,1,none,none,4_43,none/none,none
160,8,779,1,5,7,4,44,179,0,nonadjacent,none,4_44,nonadjacent/none,dependency
160,9,812,1,5,8,4,45,180,0,none,none,4_45,none/none,none
161,1,1258,1,5,12,5,1,181,0,none,none,5_1,none/none,none
161,2,708,1,5,11,5,2,182,0,none,nonadjacent,5_2,none/nonadjacent,NA
161,3,939,1,5,8,5,3,183,1,none,none,5_3,none/none,none
161,4,986,1,5,7,5,4,184,0,nonadjacent,none,5_4,nonadjacent/none,dependency
161,5,2714,1,5,4,5,5,185,0,none,none,5_5,none/none,none
161,7,3867,1,5,10,5,7,187,0,none,adjacent,5_7,none/adjacent,NA
161,8,915,1,5,3,5,8,188,0,adjacent,none,5_8,adjacent/none,dependency
161,9,1371,1,5,2,5,9,189,0,none,none,5_9,none/none,none
162,2,738,1,5,11,5,11,191,0,none,nonadjacent,5_11,none/nonadjacent,NA
162,3,4049,1,5,4,5,12,192,1,none,none,5_12,none/none,none
162,4,754,1,5,7,5,13,193,0,nonadjacent,none,5_13,nonadjacent/none,dependency
162,5,1170,1,5,12,5,14,194,0,none,none,5_14,none/none,none
162,6,1051,1,5,2,5,15,195,0,none,none,5_15,none/none,none
162,7,858,1,5,10,5,16,196,0,none,adjacent,5_16,none/adjacent,NA
162,8,770,1,5,3,5,17,197,0,adjacent,none,5_17,adjacent/none,dependency
162,9,834,1,5,8,5,18,198,0,none,none,5_18,none/none,none
163,1,773,1,5,2,5,19,199,0,none,none,5_19,none/none,none
163,2,681,1,5,11,5,20,200,0,none,nonadjacent,5_20,none/nonadjacent,NA
163,3,786,1,5,12,5,21,201,1,none,none,5_21,none/none,none
163,4,802,1,5,7,5,22,202,0,nonadjacent,none,5_22,nonadjacent/none,dependency
163,6,1107,1,5,8,5,24,204,0,none,none,5_24,none/none,none
163,7,1537,1,5,10,5,25,205,0,none,adjacent,5_25,none/adjacent,NA
163,8,1066,1,5,3,5,26,206,0,adjacent,none,5_26,adjacent/none,dependency
163,9,1491,1,5,4,5,27,207,0,none,none,5_27,none/none,none
164,1,1054,1,5,4,5,28,208,0,none,none,5_28,none/none,none
164,2,850,1,5,11,5,29,209,0,none,nonadjacent,5_29,none/nonadjacent,NA
164,3,1777,1,5,2,5,30,210,1,none,none,5_30,none/none,none
164,4,1427,1,5,7,5,31,211,0,nonadjacent,none,5_31,nonadjacent/none,dependency
164,5,753,1,5,8,5,32,212,0,none,none,5_32,none/none,none
164,6,2244,1,5,12,5,33,213,0,none,none,5_33,none/none,none
164,7,1410,1,5,10,5,34,214,0,none,adjacent,5_34,none/adjacent,NA
164,8,899,1,5,3,5,35,215,0,adjacent,none,5_35,adjacent/none,dependency
165,1,1369,1,5,8,5,37,217,0,none,none,5_37,none/none,none
165,2,1323,1,5,11,5,38,218,0,none,nonadjacent,5_38,none/nonadjacent,NA
165,4,1091,1,5,7,5,40,220,0,nonadjacent,none,5_40,nonadjacent/none,dependency
165,5,1107,1,5,2,5,41,221,0,none,none,5_41,none/none,none
165,6,1635,1,5,4,5,42,222,0,none,none,5_42,none/none,none
165,7,1963,1,5,10,5,43,223,0,none,adjacent,5_43,none/adjacent,NA
165,8,883,1,5,3,5,44,224,0,adjacent,none,5_44,adjacent/none,dependency
165,9,867,1,5,12,5,45,225,0,none,none,5_45,none/none,none
166,1,789,1,5,2,6,1,226,0,none,none,6_1,none/none,none
166,2,1044,1,5,8,6,2,227,0,none,none,6_2,none/none,none
166,3,1674,1,5,10,6,3,228,0,none,adjacent,6_3,none/adjacent,NA
166,4,1251,1,5,3,6,4,229,0,adjacent,none,6_4,adjacent/none,dependency
166,5,1060,1,5,4,6,5,230,0,none,none,6_5,none/none,none
166,6,842,1,5,11,6,6,231,0,none,nonadjacent,6_6,none/nonadjacent,NA
166,8,1051,1,5,7,6,8,233,0,nonadjacent,none,6_8,nonadjacent/none,dependency
166,9,891,1,5,12,6,9,234,0,none,none,6_9,none/none,none
167,2,1323,1,5,2,6,11,236,0,none,none,6_11,none/none,none
167,3,923,1,5,10,6,12,237,0,none,adjacent,6_12,none/adjacent,NA
167,4,1251,1,5,3,6,13,238,0,adjacent,none,6_13,adjacent/none,dependency
167,5,979,1,5,8,6,14,239,0,none,none,6_14,none/none,none
167,6,1171,1,5,11,6,15,240,0,none,nonadjacent,6_15,none/nonadjacent,NA
167,7,1124,1,5,12,6,16,241,1,none,none,6_16,none/none,none
167,8,850,1,5,7,6,17,242,0,nonadjacent,none,6_17,nonadjacent/none,dependency
167,9,4643,1,5,4,6,18,243,0,none,none,6_18,none/none,none
168,1,711,1,5,8,6,19,244,0,none,none,6_19,none/none,none
168,2,955,1,5,4,6,20,245,0,none,none,6_20,none/none,none
168,3,2626,1,5,10,6,21,246,0,none,adjacent,6_21,none/adjacent,NA
168,4,1723,1,5,3,6,22,247,0,adjacent,none,6_22,adjacent/none,dependency
168,5,1795,1,5,12,6,23,248,0,none,none,6_23,none/none,none
168,6,764,1,5,11,6,24,249,0,none,nonadjacent,6_24,none/nonadjacent,NA
168,7,738,1,5,2,6,25,250,1,none,none,6_25,none/none,none
168,8,707,1,5,7,6,26,251,0,nonadjacent,none,6_26,nonadjacent/none,dependency
169,1,746,1,5,4,6,28,253,0,none,none,6_28,none/none,none
169,2,667,1,5,12,6,29,254,0,none,none,6_29,none/none,none
169,3,867,1,5,10,6,30,255,0,none,adjacent,6_30,none/adjacent,NA
169,4,756,1,5,3,6,31,256,0,adjacent,none,6_31,adjacent/none,dependency
169,6,834,1,5,11,6,33,258,0,none,nonadjacent,6_33,none/nonadjacent,NA
169,7,1260,1,5,8,6,34,259,1,none,none,6_34,none/none,none
169,8,1021,1,5,7,6,35,260,0,nonadjacent,none,6_35,nonadjacent/none,dependency
169,9,776,1,5,2,6,36,261,0,none,none,6_36,none/none,none
170,1,1273,1,5,12,6,37,262,0,none,none,6_37,none/none,none
170,3,1249,1,5,10,6,39,264,0,none,adjacent,6_39,none/adjacent,NA
170,4,940,1,5,3,6,40,265,0,adjacent,none,6_40,adjacent/none,dependency
170,5,956,1,5,2,6,41,266,0,none,none,6_41,none/none,none
170,6,995,1,5,11,6,42,267,0,none,nonadjacent,6_42,none/nonadjacent,NA
170,7,1578,1,5,4,6,43,268,1,none,none,6_43,none/none,none
170,8,995,1,5,7,6,44,269,0,nonadjacent,none,6_44,nonadjacent/none,dependency
170,9,739,1,5,8,6,45,270,0,none,none,6_45,none/none,none
171,1,932,1,5,8,7,1,271,0,none,none,7_1,none/none,none
171,2,1763,1,5,4,7,2,272,0,none,none,7_2,none/none,none
171,3,857,1,5,10,7,3,273,0,none,adjacent,7_3,none/adjacent,NA
171,5,834,1,5,2,7,5,275,0,none,none,7_5,none/none,none
171,6,1026,1,5,12,7,6,276,0,none,none,7_6,none/none,none
171,7,770,1,5,3,7,7,277,0,none,none,7_7,none/none,none
171,8,3427,1,5,7,7,8,278,0,none,none,7_8,none/none,none
171,9,1106,1,5,11,7,9,279,0,none,nonadjacent,7_9,none/nonadjacent,NA
172,1,1471,1,5,4,7,10,280,1,none,none,7_10,none/none,none
172,3,739,1,5,2,7,12,282,0,none,none,7_12,none/none,none
172,4,858,1,5,12,7,13,283,0,none,none,7_13,none/none,none
172,5,1202,1,5,8,7,14,284,0,none,none,7_14,none/none,none
172,6,1034,1,5,3,7,15,285,0,none,none,7_15,none/none,none
172,7,1675,1,5,7,7,16,286,0,none,none,7_16,none/none,none
172,8,1562,1,5,11,7,17,287,0,none,nonadjacent,7_17,none/nonadjacent,NA
172,9,1411,1,5,10,7,18,288,1,none,adjacent,7_18,none/adjacent,NA
173,1,933,1,5,12,7,19,289,0,both,none,7_19,both/none,dependency
173,2,898,1,5,3,7,20,290,0,none,none,7_20,none/none,none
173,4,843,1,5,11,7,22,292,0,none,nonadjacent,7_22,none/nonadjacent,NA
173,5,852,1,5,4,7,23,293,1,none,none,7_23,none/none,none
173,6,1194,1,5,10,7,24,294,0,nonadjacent,adjacent,7_24,nonadjacent/adjacent,dependency
173,7,1291,1,5,2,7,25,295,0,adjacent,none,7_25,adjacent/none,dependency
173,8,923,1,5,8,7,26,296,0,none,none,7_26,none/none,none
173,9,843,1,5,7,7,27,297,0,none,none,7_27,none/none,none
174,2,1369,1,5,11,7,29,299,0,none,nonadjacent,7_29,none/nonadjacent,NA
174,3,1266,1,5,7,7,30,300,1,none,none,7_30,none/none,none
174,4,947,1,5,10,7,31,301,0,nonadjacent,adjacent,7_31,nonadjacent/adjacent,dependency
174,5,979,1,5,12,7,32,302,0,adjacent,none,7_32,adjacent/none,dependency
174,6,1091,1,5,2,7,33,303,0,none,none,7_33,none/none,none
174,7,995,1,5,8,7,34,304,0,none,none,7_34,none/none,none
174,8,1163,1,5,3,7,35,305,0,none,none,7_35,none/none,none
174,9,1370,1,5,4,7,36,306,0,none,none,7_36,none/none,none
175,1,796,1,5,10,7,37,307,0,none,adjacent,7_37,none/adjacent,NA
175,2,874,1,5,8,7,38,308,0,adjacent,none,7_38,adjacent/none,dependency
175,3,1539,1,5,3,7,39,309,0,none,none,7_39,none/none,none
175,4,660,1,5,7,7,40,310,0,none,none,7_40,none/none,none
175,5,995,1,5,11,7,41,311,0,none,nonadjacent,7_41,none/nonadjacent,NA
175,7,1164,1,5,4,7,43,313,0,nonadjacent,none,7_43,nonadjacent/none,dependency
175,8,826,1,5,2,7,44,314,0,none,none,7_44,none/none,none
175,9,1252,1,5,12,7,45,315,0,none,none,7_45,none/none,none
176,1,2736,1,6,12,1,1,1,0,none,none,1_1,none/none,none
176,2,1505,1,6,2,1,2,2,0,none,none,1_2,none/none,none
176,3,938,1,6,10,1,3,3,0,none,adjacent,1_3,none/adjacent,NA
176,4,1362,1,6,3,1,4,4,0,adjacent,none,1_4,adjacent/none,dependency
176,5,1646,1,6,4,1,5,5,0,none,none,1_5,none/none,none
176,6,1227,1,6,11,1,6,6,0,none,nonadjacent,1_6,none/nonadjacent,NA
176,8,1102,1,6,7,1,8,8,0,nonadjacent,none,1_8,nonadjacent/none,dependency
176,9,2957,1,6,8,1,9,9,0,none,none,1_9,none/none,none
177,1,793,1,6,8,1,10,10,0,none,none,1_10,none/none,none
177,2,906,1,6,12,1,11,11,0,none,none,1_11,none/none,none
177,3,937,1,6,10,1,12,12,0,none,adjacent,1_12,none/adjacent,NA
177,4,939,1,6,3,1,13,13,0,adjacent,none,1_13,adjacent/none,dependency
177,5,1033,1,6,2,1,14,14,0,none,none,1_14,none/none,none
177,6,1129,1,6,11,1,15,15,0,none,nonadjacent,1_15,none/nonadjacent,NA
177,7,1850,1,6,4,1,16,16,1,none,none,1_16,none/none,none
177,8,1480,1,6,7,1,17,17,0,nonadjacent,none,1_17,nonadjacent/none,dependency
178,2,2352,1,6,8,1,20,20,0,none,none,1_20,none/none,none
178,3,1505,0,6,10,1,21,21,0,none,adjacent,1_21,none/adjacent,NA
178,4,1537,1,6,3,1,22,22,0,adjacent,none,1_22,adjacent/none,dependency
178,5,882,1,6,12,1,23,23,0,none,none,1_23,none/none,none
178,6,1475,1,6,11,1,24,24,0,none,nonadjacent,1_24,none/nonadjacent,NA
178,7,1400,1,6,2,1,25,25,1,none,none,1_25,none/none,none
178,8,1210,1,6,7,1,26,26,0,nonadjacent,none,1_26,nonadjacent/none,dependency
178,9,1729,1,6,4,1,27,27,0,none,none,1_27,none/none,none
179,1,860,1,6,4,1,28,28,0,none,none,1_28,none/none,none
179,3,866,1,6,10,1,30,30,0,none,adjacent,1_30,none/adjacent,NA
179,4,2510,1,6,3,1,31,31,0,adjacent,none,1_31,adjacent/none,dependency
179,5,1034,0,6,8,1,32,32,0,none,none,1_32,none/none,none
179,6,3309,1,6,11,1,33,33,0,none,nonadjacent,1_33,none/nonadjacent,NA
179,7,994,1,6,12,1,34,34,1,none,none,1_34,none/none,none
179,8,2327,1,6,7,1,35,35,0,nonadjacent,none,1_35,nonadjacent/none,dependency
179,9,2103,1,6,2,1,36,36,0,none,none,1_36,none/none,none
180,1,730,1,6,2,1,37,37,0,none,none,1_37,none/none,none
180,2,1073,1,6,4,1,38,38,0,none,none,1_38,none/none,none
180,3,1480,0,6,10,1,39,39,0,none,adjacent,1_39,none/adjacent,NA
180,4,2830,1,6,3,1,40,40,0,adjacent,none,1_40,adjacent/none,dependency
180,6,1133,1,6,11,1,42,42,0,none,nonadjacent,1_42,none/nonadjacent,NA
180,7,770,1,6,8,1,43,43,1,none,none,1_43,none/none,none
180,8,1034,1,6,7,1,44,44,0,nonadjacent,none,1_44,nonadjacent/none,dependency
180,9,778,1,6,12,1,45,45,0,none,none,1_45,none/none,none
181,1,755,1,6,12,2,1,46,0,none,none,2_1,none/none,none
181,2,1345,1,6,11,2,2,47,0,none,nonadjacent,2_2,none/nonadjacent,NA
181,3,1249,1,6,4,2,3,48,1,none,none,2_3,none/none,none
181,4,1273,1,6,7,2,4,49,0,nonadjacent,none,2_4,nonadjacent/none,dependency
181,6,1019,1,6,8,2,6,51,0,none,none,2_6,none/none,none
181,7,906,1,6,10,2,7,52,0,none,adjacent,2_7,none/adjacent,NA
181,8,1295,1,6,3,2,8,53,0,adjacent,none,2_8,adjacent/none,dependency
181,9,849,1,6,2,2,9,54,0,none,none,2_9,none/none,none
182,1,1332,1,6,4,2,10,55,0,none,none,2_10,none/none,none
182,2,1409,1,6,11,2,11,56,0,none,nonadjacent,2_11,none/nonadjacent,NA
182,3,833,1,6,8,2,12,57,1,none,none,2_12,none/none,none
182,4,1520,1,6,7,2,13,58,0,nonadjacent,none,2_13,nonadjacent/none,dependency
182,5,1857,1,6,12,2,14,59,0,none,none,2_14,none/none,none
182,6,1209,1,6,2,2,15,60,0,none,none,2_15,none/none,none
182,7,1225,1,6,10,2,16,61,0,none,adjacent,2_16,none/adjacent,NA
182,8,795,1,6,3,2,17,62,0,adjacent,none,2_17,adjacent/none,dependency
183,1,787,1,6,2,2,19,64,0,none,none,2_19,none/none,none
183,2,1777,1,6,11,2,20,65,0,none,nonadjacent,2_20,none/nonadjacent,NA
183,4,1593,1,6,7,2,22,67,0,nonadjacent,none,2_22,nonadjacent/none,dependency
183,5,1106,1,6,8,2,23,68,0,none,none,2_23,none/none,none
183,6,1002,1,6,12,2,24,69,0,none,none,2_24,none/none,none
183,7,2263,1,6,10,2,25,70,0,none,adjacent,2_25,none/adjacent,NA
183,8,1848,1,6,3,2,26,71,0,adjacent,none,2_26,adjacent/none,dependency
183,9,770,1,6,4,2,27,72,0,none,none,2_27,none/none,none
184,2,882,1,6,11,2,29,74,0,none,nonadjacent,2_29,none/nonadjacent,NA
184,3,1297,1,6,12,2,30,75,1,none,none,2_30,none/none,none
184,4,770,1,6,7,2,31,76,0,nonadjacent,none,2_31,nonadjacent/none,dependency
184,5,1010,1,6,2,2,32,77,0,none,none,2_32,none/none,none
184,6,906,1,6,4,2,33,78,0,none,none,2_33,none/none,none
184,7,1157,1,6,10,2,34,79,0,none,adjacent,2_34,none/adjacent,NA
184,8,1928,1,6,3,2,35,80,0,adjacent,none,2_35,adjacent/none,dependency
184,9,746,1,6,8,2,36,81,0,none,none,2_36,none/none,none
185,1,657,1,6,8,2,37,82,0,none,none,2_37,none/none,none
185,2,1249,1,6,11,2,38,83,0,none,nonadjacent,2_38,none/nonadjacent,NA
185,3,753,1,6,2,2,39,84,1,none,none,2_39,none/none,none
185,4,1176,1,6,7,2,40,85,0,nonadjacent,none,2_40,nonadjacent/none,dependency
185,5,818,1,6,4,2,41,86,0,none,none,2_41,none/none,none
185,7,1033,1,6,10,2,43,88,0,none,adjacent,2_43,none/adjacent,NA
185,8,859,0,6,3,2,44,89,0,adjacent,none,2_44,adjacent/none,dependency
185,9,2167,1,6,12,2,45,90,0,none,none,2_45,none/none,none
186,1,1159,1,6,8,3,1,91,0,none,none,3_1,none/none,none
186,3,777,1,6,10,3,3,93,0,none,adjacent,3_3,none/adjacent,NA
186,4,1201,1,6,3,3,4,94,0,adjacent,none,3_4,adjacent/none,dependency
186,5,745,1,6,2,3,5,95,0,none,none,3_5,none/none,none
186,6,841,1,6,11,3,6,96,0,none,nonadjacent,3_6,none/nonadjacent,NA
186,7,906,1,6,4,3,7,97,1,none,none,3_7,none/none,none
186,8,812,1,6,7,3,8,98,0,nonadjacent,none,3_8,nonadjacent/none,dependency
186,9,890,1,6,12,3,9,99,0,none,none,3_9,none/none,none
187,2,930,1,6,4,3,11,101,0,none,none,3_11,none/none,none
187,3,898,1,6,10,3,12,102,0,none,adjacent,3_12,none/adjacent,NA
187,4,1067,1,6,3,3,13,103,0,adjacent,none,3_13,adjacent/none,dependency
187,5,1329,1,6,12,3,14,104,0,none,none,3_14,none/none,none
187,6,1409,1,6,11,3,15,105,0,none,nonadjacent,3_15,none/nonadjacent,NA
187,7,1017,0,6,2,3,16,106,1,none,none,3_16,none/none,none
187,8,1944,1,6,7,3,17,107,0,nonadjacent,none,3_17,nonadjacent/none,dependency
187,9,1104,1,6,8,3,18,108,0,none,none,3_18,none/none,none
188,1,872,1,6,2,3,19,109,0,none,none,3_19,none/none,none
188,2,2103,1,6,12,3,20,110,0,none,none,3_20,none/none,none
188,3,1042,1,6,10,3,21,111,0,none,adjacent,3_21,none/adjacent,NA
188,4,1226,1,6,3,3,22,112,0,adjacent,none,3_22,adjacent/none,dependency
188,6,949,1,6,11,3,24,114,0,none,nonadjacent,3_24,none/nonadjacent,NA
188,7,738,1,6,8,3,25,115,1,none,none,3_25,none/none,none
188,8,842,1,6,7,3,26,116,0,nonadjacent,none,3_26,nonadjacent/none,dependency
188,9,1242,1,6,4,3,27,117,0,none,none,3_27,none/none,none
189,1,781,1,6,4,3,28,118,0,none,none,3_28,none/none,none
189,2,977,1,6,2,3,29,119,0,none,none,3_29,none/none,none
189,3,2016,1,6,10,3,30,120,0,none,adjacent,3_30,none/adjacent,NA
189,4,801,0,6,3,3,31,121,0,adjacent,none,3_31,adjacent/none,dependency
189,5,1537,1,6,8,3,32,122,0,none,none,3_32,none/none,none
189,6,937,1,6,11,3,33,123,0,none,nonadjacent,3_33,none/nonadjacent,NA
189,7,1649,1,6,12,3,34,124,1,none,none,3_34,none/none,none
189,8,3404,1,6,7,3,35,125,0,nonadjacent,none,3_35,nonadjacent/none,dependency
190,1,971,1,6,12,3,37,127,0,none,none,3_37,none/none,none
190,2,1958,1,6,8,3,38,128,0,none,none,3_38,none/none,none
190,3,2558,1,6,10,3,39,129,0,none,adjacent,3_39,none/adjacent,NA
190,4,1352,1,6,3,3,40,130,0,adjacent,none,3_40,adjacent/none,dependency
190,5,922,1,6,4,3,41,131,0,none,none,3_41,none/none,none
190,6,1060,1,6,11,3,42,132,0,none,nonadjacent,3_42,none/nonadjacent,NA
190,8,1417,1,6,7,3,44,134,0,nonadjacent,none,3_44,nonadjacent/none,dependency
190,9,2288,1,6,2,3,45,135,0,none,none,3_45,none/none,none
191,1,928,1,6,12,4,1,136,0,none,none,4_1,none/none,none
191,2,3172,1,6,11,4,2,137,0,none,nonadjacent,4_2,none/nonadjacent,NA
191,3,785,1,6,2,4,3,138,1,none,none,4_3,none/none,none
191,4,1097,1,6,7,4,4,139,0,nonadjacent,none,4_4,nonadjacent/none,dependency
191,5,931,1,6,4,4,5,140,0,none,none,4_5,none/none,none
191,7,849,1,6,10,4,7,142,0,none,adjacent,4_7,none/adjacent,NA
191,8,1249,1,6,3,4,8,143,0,adjacent,none,4_8,adjacent/none,dependency
191,9,857,1,6,8,4,9,144,0,none,none,4_9,none/none,none
192,1,1009,1,6,8,4,10,145,0,none,none,4_10,none/none,none
192,2,1801,1,6,11,4,11,146,0,none,nonadjacent,4_11,none/nonadjacent,NA
192,3,985,1,6,12,4,12,147,1,none,none,4_12,none/none,none
192,4,858,1,6,7,4,13,148,0,nonadjacent,none,4_13,nonadjacent/none,dependency
192,5,1105,1,6,2,4,14,149,0,none,none,4_14,none/none,none
192,6,1201,1,6,4,4,15,150,0,none,none,4_15,none/none,none
192,7,753,1,6,10,4,16,151,0,none,adjacent,4_16,none/adjacent,NA
192,8,1159,1,6,3,4,17,152,0,adjacent,none,4_17,adjacent/none,dependency
193,1,1469,1,6,2,4,19,154,0,none,none,4_19,none/none,none
193,2,955,1,6,11,4,20,155,0,none,nonadjacent,4_20,none/nonadjacent,NA
193,3,993,1,6,4,4,21,156,1,none,none,4_21,none/none,none
193,4,1856,1,6,7,4,22,157,0,nonadjacent,none,4_22,nonadjacent/none,dependency
193,6,891,1,6,8,4,24,159,0,none,none,4_24,none/none,none
193,7,829,1,6,10,4,25,160,0,none,adjacent,4_25,none/adjacent,NA
193,8,1226,1,6,3,4,26,161,0,adjacent,none,4_26,adjacent/none,dependency
193,9,928,1,6,12,4,27,162,0,none,none,4_27,none/none,none
194,2,811,1,6,11,4,29,164,0,none,nonadjacent,4_29,none/nonadjacent,NA
194,3,1000,1,6,8,4,30,165,1,none,none,4_30,none/none,none
194,4,2247,1,6,7,4,31,166,0,nonadjacent,none,4_31,nonadjacent/none,dependency
194,5,1185,1,6,12,4,32,167,0,none,none,4_32,none/none,none
194,6,1129,1,6,2,4,33,168,0,none,none,4_33,none/none,none
194,7,913,1,6,10,4,34,169,0,none,adjacent,4_34,none/adjacent,NA
194,8,1090,1,6,3,4,35,170,0,adjacent,none,4_35,adjacent/none,dependency
194,9,882,1,6,4,4,36,171,0,none,none,4_36,none/none,none
195,1,1106,1,6,4,4,37,172,0,none,none,4_37,none/none,none
195,2,1313,1,6,11,4,38,173,0,none,nonadjacent,4_38,none/nonadjacent,NA
195,4,817,1,6,7,4,40,175,0,nonadjacent,none,4_40,nonadjacent/none,dependency
195,5,1446,1,6,8,4,41,176,0,none,none,4_41,none/none,none
195,6,812,1,6,12,4,42,177,0,none,none,4_42,none/none,none
195,7,2146,1,6,10,4,43,178,0,none,adjacent,4_43,none/adjacent,NA
195,8,1409,1,6,3,4,44,179,0,adjacent,none,4_44,adjacent/none,dependency
195,9,1544,1,6,2,4,45,180,0,none,none,4_45,none/none,none
196,1,909,1,6,12,5,1,181,0,none,none,5_1,none/none,none
196,3,793,1,6,10,5,3,183,0,none,adjacent,5_3,none/adjacent,NA
196,4,1865,1,6,3,5,4,184,0,adjacent,none,5_4,adjacent/none,dependency
196,5,785,1,6,2,5,5,185,0,none,none,5_5,none/none,none
196,6,1186,1,6,11,5,6,186,0,none,nonadjacent,5_6,none/nonadjacent,NA
196,7,1001,1,6,4,5,7,187,1,none,none,5_7,none/none,none
196,8,864,1,6,7,5,8,188,0,nonadjacent,none,5_8,nonadjacent/none,dependency
196,9,937,1,6,8,5,9,189,0,none,none,5_9,none/none,none
197,1,776,1,6,8,5,10,190,0,none,none,5_10,none/none,none
197,2,937,0,6,4,5,11,191,0,none,none,5_11,none/none,none
197,3,1385,1,6,10,5,12,192,0,none,adjacent,5_12,none/adjacent,NA
197,4,1098,1,6,3,5,13,193,0,adjacent,none,5_13,adjacent/none,dependency
197,5,962,1,6,12,5,14,194,0,none,none,5_14,none/none,none
197,6,1234,1,6,11,5,15,195,0,none,nonadjacent,5_15,none/nonadjacent,NA
197,7,2628,1,6,2,5,16,196,1,none,none,5_16,none/none,none
197,8,2335,1,6,7,5,17,197,0,nonadjacent,none,5_17,nonadjacent/none,dependency
198,1,2000,1,6,2,5,19,199,0,none,none,5_19,none/none,none
198,2,834,1,6,8,5,20,200,0,none,none,5_20,none/none,none
198,3,1305,1,6,10,5,21,201,0,none,adjacent,5_21,none/adjacent,NA
198,4,1295,1,6,3,5,22,202,0,adjacent,none,5_22,adjacent/none,dependency
198,5,2397,1,6,4,5,23,203,0,none,none,5_23,none/none,none
198,6,1130,1,6,11,5,24,204,0,none,nonadjacent,5_24,none/nonadjacent,NA
198,8,1263,1,6,7,5,26,206,0,nonadjacent,none,5_26,nonadjacent/none,dependency
198,9,850,1,6,12,5,27,207,0,none,none,5_27,none/none,none
199,2,1033,1,6,2,5,29,209,0,none,none,5_29,none/none,none
