row_id,trial_in_subblock,expected,rt,given,acc,subj,folder,stim,block,trial_in_block,trial_in_exp,mid,dependency,antecedent,trial,cond,dependency2
1,1,t,2972,t,TRUE,1,10.3,8,1,1,1,0,none,none,1_1,none/none,none
1,2,n,1117,n,TRUE,1,10.3,11,1,2,2,0,none,nonadjacent,1_2,none/nonadjacent,NA
1,3,b,1854,b,TRUE,1,10.3,2,1,3,3,1,none,none,1_3,none/none,none
1,4,v,1249,v,TRUE,1,10.3,7,1,4,4,0,nonadjacent,none,1_4,nonadjacent/none,dependency
1,5,f,2118,f,TRUE,1,10.3,4,1,5,5,0,none,none,1_5,none/none,none
1,7,r,1088,r,TRUE,1,10.3,10,1,7,7,0,none,adjacent,1_7,none/adjacent,NA
1,8,y,1635,y,TRUE,1,10.3,3,1,8,8,0,adjacent,none,1_8,adjacent/none,dependency
1,9,h,2566,h,TRUE,1,10.3,12,1,9,9,0,none,none,1_9,none/none,none
2,2,n,1731,n,TRUE,1,10.3,11,1,11,11,0,none,nonadjacent,1_11,none/nonadjacent,NA
2,3,h,988,h,TRUE,1,10.3,12,1,12,12,1,none,none,1_12,none/none,none
2,4,v,1275,v,TRUE,1,10.3,7,1,13,13,0,nonadjacent,none,1_13,nonadjacent/none,dependency
2,5,b,2350,b,TRUE,1,10.3,2,1,14,14,0,none,none,1_14,none/none,none
2,6,f,981,f,TRUE,1,10.3,4,1,15,15,0,none,none,1_15,none/none,none
2,7,r,1172,r,TRUE,1,10.3,10,1,16,16,0,none,adjacent,1_16,none/adjacent,NA
2,8,y,1195,y,TRUE,1,10.3,3,1,17,17,0,adjacent,none,1_17,adjacent/none,dependency
2,9,t,1138,t,TRUE,1,10.3,8,1,18,18,0,none,none,1_18,none/none,none
3,1,b,7963,b,TRUE,1,10.3,2,1,19,19,0,none,none,1_19,none/none,none
3,2,n,1333,n,TRUE,1,10.3,11,1,20,20,0,none,nonadjacent,1_20,none/nonadjacent,NA
3,4,v,1764,v,TRUE,1,10.3,7,1,22,22,0,nonadjacent,none,1_22,nonadjacent/none,dependency
3,5,t,1148,t,TRUE,1,10.3,8,1,23,23,0,none,none,1_23,none/none,none
3,6,h,1620,h,TRUE,1,10.3,12,1,24,24,0,none,none,1_24,none/none,none
3,7,r,1129,r,TRUE,1,10.3,10,1,25,25,0,none,adjacent,1_25,none/adjacent,NA
3,8,y,1450,y,TRUE,1,10.3,3,1,26,26,0,adjacent,none,1_26,adjacent/none,dependency
3,9,f,1310,f,TRUE,1,10.3,4,1,27,27,0,none,none,1_27,none/none,none
4,1,f,919,f,TRUE,1,10.3,4,1,28,28,0,none,none,1_28,none/none,none
4,2,n,1417,n,TRUE,1,10.3,11,1,29,29,0,none,nonadjacent,1_29,none/nonadjacent,NA
4,3,t,1599,t,TRUE,1,10.3,8,1,30,30,1,none,none,1_30,none/none,none
4,4,v,2013,v,TRUE,1,10.3,7,1,31,31,0,nonadjacent,none,1_31,nonadjacent/none,dependency
4,5,h,1386,h,TRUE,1,10.3,12,1,32,32,0,none,none,1_32,none/none,none
4,6,b,1518,b,TRUE,1,10.3,2,1,33,33,0,none,none,1_33,none/none,none
4,7,r,1026,r,TRUE,1,10.3,10,1,34,34,0,none,adjacent,1_34,none/adjacent,NA
4,8,y,1183,y,TRUE,1,10.3,3,1,35,35,0,adjacent,none,1_35,adjacent/none,dependency
5,1,h,1274,h,TRUE,1,10.3,12,1,37,37,0,none,none,1_37,none/none,none
5,2,n,1326,n,TRUE,1,10.3,11,1,38,38,0,none,nonadjacent,1_38,none/nonadjacent,NA
5,3,f,1215,f,TRUE,1,10.3,4,1,39,39,1,none,none,1_39,none/none,none
5,4,v,1453,v,TRUE,1,10.3,7,1,40,40,0,nonadjacent,none,1_40,nonadjacent/none,dependency
5,6,t,974,t,TRUE,1,10.3,8,1,42,42,0,none,none,1_42,none/none,none
5,7,r,957,r,TRUE,1,10.3,10,1,43,43,0,none,adjacent,1_43,none/adjacent,NA
5,8,y,1621,y,TRUE,1,10.3,3,1,44,44,0,adjacent,none,1_44,adjacent/none,dependency
5,9,b,1138,b,TRUE,1,10.3,2,1,45,45,0,none,none,1_45,none/none,none
6,2,t,978,t,TRUE,1,10.3,8,2,2,47,0,none,none,2_2,none/none,none
6,3,r,897,r,TRUE,1,10.3,10,2,3,48,0,none,adjacent,2_3,none/adjacent,NA
6,4,y,915,y,TRUE,1,10.3,3,2,4,49,0,adjacent,none,2_4,adjacent/none,dependency
6,5,h,1797,h,TRUE,1,10.3,12,2,5,50,0,none,none,2_5,none/none,none
6,6,n,2043,n,TRUE,1,10.3,11,2,6,51,0,none,nonadjacent,2_6,none/nonadjacent,NA
6,7,b,1039,b,TRUE,1,10.3,2,2,7,52,1,none,none,2_7,none/none,none
6,8,v,851,v,TRUE,1,10.3,7,2,8,53,0,nonadjacent,none,2_8,nonadjacent/none,dependency
6,9,f,976,f,TRUE,1,10.3,4,2,9,54,0,none,none,2_9,none/none,none
7,1,h,919,h,TRUE,1,10.3,12,2,10,55,0,none,none,2_10,none/none,none
7,2,b,1778,b,TRUE,1,10.3,2,2,11,56,0,none,none,2_11,none/none,none
7,3,r,1320,r,TRUE,1,10.3,10,2,12,57,0,none,adjacent,2_12,none/adjacent,NA
7,4,y,858,y,TRUE,1,10.3,3,2,13,58,0,adjacent,none,2_13,adjacent/none,dependency
7,5,f,869,f,TRUE,1,10.3,4,2,14,59,0,none,none,2_14,none/none,none
7,6,n,1233,n,TRUE,1,10.3,11,2,15,60,0,none,nonadjacent,2_15,none/nonadjacent,NA
7,8,v,1022,v,TRUE,1,10.3,7,2,17,62,0,nonadjacent,none,2_17,nonadjacent/none,dependency
7,9,t,875,t,TRUE,1,10.3,8,2,18,63,0,none,none,2_18,none/none,none
8,1,f,2861,f,TRUE,1,10.3,4,2,19,64,0,none,none,2_19,none/none,none
8,3,r,1388,r,TRUE,1,10.3,10,2,21,66,0,none,adjacent,2_21,none/adjacent,NA
8,4,y,907,y,TRUE,1,10.3,3,2,22,67,0,adjacent,none,2_22,adjacent/none,dependency
8,5,t,1236,t,TRUE,1,10.3,8,2,23,68,0,none,none,2_23,none/none,none
8,6,n,1057,n,TRUE,1,10.3,11,2,24,69,0,none,nonadjacent,2_24,none/nonadjacent,NA
8,7,h,2509,h,TRUE,1,10.3,12,2,25,70,1,none,none,2_25,none/none,none
8,8,v,1022,v,TRUE,1,10.3,7,2,26,71,0,nonadjacent,none,2_26,nonadjacent/none,dependency
8,9,b,843,b,TRUE,1,10.3,2,2,27,72,0,none,none,2_27,none/none,none
9,1,t,837,t,TRUE,1,10.3,8,2,28,73,0,none,none,2_28,none/none,none
9,2,h,899,h,TRUE,1,10.3,12,2,29,74,0,none,none,2_29,none/none,none
9,3,r,1477,r,TRUE,1,10.3,10,2,30,75,0,none,adjacent,2_30,none/adjacent,NA
9,4,y,1480,y,TRUE,1,10.3,3,2,31,76,0,adjacent,none,2_31,adjacent/none,dependency
9,5,b,987,b,TRUE,1,10.3,2,2,32,77,0,none,none,2_32,none/none,none
9,6,n,1002,n,TRUE,1,10.3,11,2,33,78,0,none,nonadjacent,2_33,none/nonadjacent,NA
9,7,f,864,f,TRUE,1,10.3,4,2,34,79,1,none,none,2_34,none/none,none
9,8,v,1548,v,TRUE,1,10.3,7,2,35,80,0,nonadjacent,none,2_35,nonadjacent/none,dependency
10,1,b,1335,b,TRUE,1,10.3,2,2,37,82,0,none,none,2_37,none/none,none
10,2,f,1577,f,TRUE,1,10.3,4,2,38,83,0,none,none,2_38,none/none,none
10,3,r,3096,r,TRUE,1,10.3,10,2,39,84,0,none,adjacent,2_39,none/adjacent,NA
10,4,y,1073,y,TRUE,1,10.3,3,2,40,85,0,adjacent,none,2_40,adjacent/none,dependency
10,6,n,803,n,TRUE,1,10.3,11,2,42,87,0,none,nonadjacent,2_42,none/nonadjacent,NA
10,7,t,882,t,TRUE,1,10.3,8,2,43,88,1,none,none,2_43,none/none,none
10,8,v,845,v,TRUE,1,10.3,7,2,44,89,0,nonadjacent,none,2_44,nonadjacent/none,dependency
10,9,h,914,h,TRUE,1,10.3,12,2,45,90,0,none,none,2_45,none/none,none
11,1,b,1482,b,TRUE,1,10.3,2,3,1,91,0,none,none,3_1,none/none,none
11,2,n,2085,n,TRUE,1,10.3,11,3,2,92,0,none,nonadjacent,3_2,none/nonadjacent,NA
11,3,f,1143,f,TRUE,1,10.3,4,3,3,93,1,none,none,3_3,none/none,none
11,4,v,1263,v,TRUE,1,10.3,7,3,4,94,0,nonadjacent,none,3_4,nonadjacent/none,dependency
11,6,t,1678,t,TRUE,1,10.3,8,3,6,96,0,none,none,3_6,none/none,none
11,7,r,857,r,TRUE,1,10.3,10,3,7,97,0,none,adjacent,3_7,none/adjacent,NA
11,8,y,1085,y,TRUE,1,10.3,3,3,8,98,0,adjacent,none,3_8,adjacent/none,dependency
11,9,h,1359,h,TRUE,1,10.3,12,3,9,99,0,none,none,3_9,none/none,none
12,1,f,928,f,TRUE,1,10.3,4,3,10,100,0,none,none,3_10,none/none,none
12,2,n,842,n,TRUE,1,10.3,11,3,11,101,0,none,nonadjacent,3_11,none/nonadjacent,NA
12,4,v,822,v,TRUE,1,10.3,7,3,13,103,0,nonadjacent,none,3_13,nonadjacent/none,dependency
12,5,t,843,t,TRUE,1,10.3,8,3,14,104,0,none,none,3_14,none/none,none
12,6,h,1767,h,TRUE,1,10.3,12,3,15,105,0,none,none,3_15,none/none,none
12,7,r,830,r,TRUE,1,10.3,10,3,16,106,0,none,adjacent,3_16,none/adjacent,NA
12,8,y,1379,y,TRUE,1,10.3,3,3,17,107,0,adjacent,none,3_17,adjacent/none,dependency
12,9,b,1059,b,TRUE,1,10.3,2,3,18,108,0,none,none,3_18,none/none,none
13,1,h,1158,h,TRUE,1,10.3,12,3,19,109,0,none,none,3_19,none/none,none
13,2,n,799,n,TRUE,1,10.3,11,3,20,110,0,none,nonadjacent,3_20,none/nonadjacent,NA
13,3,b,814,b,TRUE,1,10.3,2,3,21,111,1,none,none,3_21,none/none,none
13,4,v,876,v,TRUE,1,10.3,7,3,22,112,0,nonadjacent,none,3_22,nonadjacent/none,dependency
13,5,f,727,f,TRUE,1,10.3,4,3,23,113,0,none,none,3_23,none/none,none
13,7,r,825,r,TRUE,1,10.3,10,3,25,115,0,none,adjacent,3_25,none/adjacent,NA
13,8,y,934,y,TRUE,1,10.3,3,3,26,116,0,adjacent,none,3_26,adjacent/none,dependency
13,9,t,920,t,TRUE,1,10.3,8,3,27,117,0,none,none,3_27,none/none,none
14,2,n,1266,n,TRUE,1,10.3,11,3,29,119,0,none,nonadjacent,3_29,none/nonadjacent,NA
14,3,t,1054,t,TRUE,1,10.3,8,3,30,120,1,none,none,3_30,none/none,none
14,4,v,1146,v,TRUE,1,10.3,7,3,31,121,0,nonadjacent,none,3_31,nonadjacent/none,dependency
14,5,h,722,h,TRUE,1,10.3,12,3,32,122,0,none,none,3_32,none/none,none
14,6,b,820,b,TRUE,1,10.3,2,3,33,123,0,none,none,3_33,none/none,none
14,7,r,810,r,TRUE,1,10.3,10,3,34,124,0,none,adjacent,3_34,none/adjacent,NA
14,8,y,1479,y,TRUE,1,10.3,3,3,35,125,0,adjacent,none,3_35,adjacent/none,dependency
14,9,f,986,f,TRUE,1,10.3,4,3,36,126,0,none,none,3_36,none/none,none
15,1,t,937,t,TRUE,1,10.3,8,3,37,127,0,none,none,3_37,none/none,none
15,2,n,867,n,TRUE,1,10.3,11,3,38,128,0,none,nonadjacent,3_38,none/nonadjacent,NA
15,3,h,870,h,TRUE,1,10.3,12,3,39,129,1,none,none,3_39,none/none,none
15,4,v,803,v,TRUE,1,10.3,7,3,40,130,0,nonadjacent,none,3_40,nonadjacent/none,dependency
15,5,b,905,b,TRUE,1,10.3,2,3,41,131,0,none,none,3_41,none/none,none
15,6,f,2011,f,TRUE,1,10.3,4,3,42,132,0,none,none,3_42,none/none,none
15,7,r,1392,r,TRUE,1,10.3,10,3,43,133,0,none,adjacent,3_43,none/adjacent,NA
15,8,y,1878,y,TRUE,1,10.3,3,3,44,134,0,adjacent,none,3_44,adjacent/none,dependency
16,1,f,1947,f,TRUE,1,10.3,4,4,1,136,0,none,none,4_1,none/none,none
16,2,b,739,b,TRUE,1,10.3,2,4,2,137,0,none,none,4_2,none/none,none
16,3,r,1252,r,TRUE,1,10.3,10,4,3,138,0,none,adjacent,4_3,none/adjacent,NA
16,4,y,1144,y,TRUE,1,10.3,3,4,4,139,0,adjacent,none,4_4,adjacent/none,dependency
16,5,t,1153,t,TRUE,1,10.3,8,4,5,140,0,none,none,4_5,none/none,none
16,6,n,785,n,TRUE,1,10.3,11,4,6,141,0,none,nonadjacent,4_6,none/nonadjacent,NA
16,7,h,936,h,TRUE,1,10.3,12,4,7,142,1,none,none,4_7,none/none,none
16,8,v,777,v,TRUE,1,10.3,7,4,8,143,0,nonadjacent,none,4_8,nonadjacent/none,dependency
17,2,f,712,f,TRUE,1,10.3,4,4,11,146,0,none,none,4_11,none/none,none
17,3,r,946,r,TRUE,1,10.3,10,4,12,147,0,none,adjacent,4_12,none/adjacent,NA
17,4,y,970,y,TRUE,1,10.3,3,4,13,148,0,adjacent,none,4_13,adjacent/none,dependency
17,5,h,1018,h,TRUE,1,10.3,12,4,14,149,0,none,none,4_14,none/none,none
17,6,n,889,n,TRUE,1,10.3,11,4,15,150,0,none,nonadjacent,4_15,none/nonadjacent,NA
17,7,b,843,b,TRUE,1,10.3,2,4,16,151,1,none,none,4_16,none/none,none
17,8,v,600,v,TRUE,1,10.3,7,4,17,152,0,nonadjacent,none,4_17,nonadjacent/none,dependency
17,9,t,782,t,TRUE,1,10.3,8,4,18,153,0,none,none,4_18,none/none,none
18,1,h,845,h,TRUE,1,10.3,12,4,19,154,0,none,none,4_19,none/none,none
18,2,t,802,t,TRUE,1,10.3,8,4,20,155,0,none,none,4_20,none/none,none
18,3,r,785,r,TRUE,1,10.3,10,4,21,156,0,none,adjacent,4_21,none/adjacent,NA
18,4,y,849,y,TRUE,1,10.3,3,4,22,157,0,adjacent,none,4_22,adjacent/none,dependency
18,5,f,1261,f,TRUE,1,10.3,4,4,23,158,0,none,none,4_23,none/none,none
18,6,n,873,n,TRUE,1,10.3,11,4,24,159,0,none,nonadjacent,4_24,none/nonadjacent,NA
18,8,v,804,v,TRUE,1,10.3,7,4,26,161,0,nonadjacent,none,4_26,nonadjacent/none,dependency
18,9,b,1786,b,TRUE,1,10.3,2,4,27,162,0,none,none,4_27,none/none,none
19,1,t,1623,t,TRUE,1,10.3,8,4,28,163,0,none,none,4_28,none/none,none
19,3,r,741,r,TRUE,1,10.3,10,4,30,165,0,none,adjacent,4_30,none/adjacent,NA
19,4,y,726,y,TRUE,1,10.3,3,4,31,166,0,adjacent,none,4_31,adjacent/none,dependency
19,5,b,839,b,TRUE,1,10.3,2,4,32,167,0,none,none,4_32,none/none,none
19,6,n,967,n,TRUE,1,10.3,11,4,33,168,0,none,nonadjacent,4_33,none/nonadjacent,NA
19,7,f,795,f,TRUE,1,10.3,4,4,34,169,1,none,none,4_34,none/none,none
19,8,v,746,v,TRUE,1,10.3,7,4,35,170,0,nonadjacent,none,4_35,nonadjacent/none,dependency
19,9,h,779,h,TRUE,1,10.3,12,4,36,171,0,none,none,4_36,none/none,none
20,1,b,1707,b,TRUE,1,10.3,2,4,37,172,0,none,none,4_37,none/none,none
20,2,h,701,h,TRUE,1,10.3,12,4,38,173,0,none,none,4_38,none/none,none
20,3,r,1872,r,TRUE,1,10.3,10,4,39,174,0,none,adjacent,4_39,none/adjacent,NA
20,4,y,842,y,TRUE,1,10.3,3,4,40,175,0,adjacent,none,4_40,adjacent/none,dependency
20,6,n,780,n,TRUE,1,10.3,11,4,42,177,0,none,nonadjacent,4_42,none/nonadjacent,NA
20,7,t,916,t,TRUE,1,10.3,8,4,43,178,1,none,none,4_43,none/none,none
20,8,v,1069,v,TRUE,1,10.3,7,4,44,179,0,nonadjacent,none,4_44,nonadjacent/none,dependency
20,9,f,705,f,TRUE,1,10.3,4,4,45,180,0,none,none,4_45,none/none,none
21,1,f,1868,f,TRUE,1,10.3,4,5,1,181,0,none,none,5_1,none/none,none
21,2,n,1199,n,TRUE,1,10.3,11,5,2,182,0,none,nonadjacent,5_2,none/nonadjacent,NA
21,3,b,822,b,TRUE,1,10.3,2,5,3,183,1,none,none,5_3,none/none,none
21,4,v,1899,v,TRUE,1,10.3,7,5,4,184,0,nonadjacent,none,5_4,nonadjacent/none,dependency
21,5,t,1909,t,TRUE,1,10.3,8,5,5,185,0,none,none,5_5,none/none,none
21,6,h,966,h,TRUE,1,10.3,12,5,6,186,0,none,none,5_6,none/none,none
21,7,r,710,r,TRUE,1,10.3,10,5,7,187,0,none,adjacent,5_7,none/adjacent,NA
21,8,y,1336,y,TRUE,1,10.3,3,5,8,188,0,adjacent,none,5_8,adjacent/none,dependency
22,2,n,1600,n,TRUE,1,10.3,11,5,11,191,0,none,nonadjacent,5_11,none/nonadjacent,NA
22,3,f,829,f,TRUE,1,10.3,4,5,12,192,1,none,none,5_12,none/none,none
22,4,v,715,v,TRUE,1,10.3,7,5,13,193,0,nonadjacent,none,5_13,nonadjacent/none,dependency
22,5,h,877,h,TRUE,1,10.3,12,5,14,194,0,none,none,5_14,none/none,none
22,6,b,1336,b,TRUE,1,10.3,2,5,15,195,0,none,none,5_15,none/none,none
22,7,r,1425,r,TRUE,1,10.3,10,5,16,196,0,none,adjacent,5_16,none/adjacent,NA
22,8,y,1110,y,TRUE,1,10.3,3,5,17,197,0,adjacent,none,5_17,adjacent/none,dependency
22,9,t,824,t,TRUE,1,10.3,8,5,18,198,0,none,none,5_18,none/none,none
23,1,b,773,b,TRUE,1,10.3,2,5,19,199,0,none,none,5_19,none/none,none
23,2,n,1749,n,TRUE,1,10.3,11,5,20,200,0,none,nonadjacent,5_20,none/nonadjacent,NA
23,3,h,1085,h,TRUE,1,10.3,12,5,21,201,1,none,none,5_21,none/none,none
23,4,v,1616,v,TRUE,1,10.3,7,5,22,202,0,nonadjacent,none,5_22,nonadjacent/none,dependency
23,6,t,885,t,TRUE,1,10.3,8,5,24,204,0,none,none,5_24,none/none,none
23,7,r,696,r,TRUE,1,10.3,10,5,25,205,0,none,adjacent,5_25,none/adjacent,NA
23,8,y,636,y,TRUE,1,10.3,3,5,26,206,0,adjacent,none,5_26,adjacent/none,dependency
23,9,f,785,f,TRUE,1,10.3,4,5,27,207,0,none,none,5_27,none/none,none
24,1,h,727,h,TRUE,1,10.3,12,5,28,208,0,none,none,5_28,none/none,none
24,2,n,1138,n,TRUE,1,10.3,11,5,29,209,0,none,nonadjacent,5_29,none/nonadjacent,NA
24,3,t,2146,t,TRUE,1,10.3,8,5,30,210,1,none,none,5_30,none/none,none
24,4,v,1514,f,FALSE,1,10.3,7,5,31,211,0,nonadjacent,none,5_31,nonadjacent/none,dependency
24,5,f,1547,f,TRUE,1,10.3,4,5,32,212,0,none,none,5_32,none/none,none
24,7,r,1424,r,TRUE,1,10.3,10,5,34,214,0,none,adjacent,5_34,none/adjacent,NA
24,8,y,1037,y,TRUE,1,10.3,3,5,35,215,0,adjacent,none,5_35,adjacent/none,dependency
24,9,b,793,b,TRUE,1,10.3,2,5,36,216,0,none,none,5_36,none/none,none
25,1,t,1899,t,TRUE,1,10.3,8,5,37,217,0,none,none,5_37,none/none,none
25,2,n,781,n,TRUE,1,10.3,11,5,38,218,0,none,nonadjacent,5_38,none/nonadjacent,NA
25,4,v,724,v,TRUE,1,10.3,7,5,40,220,0,nonadjacent,none,5_40,nonadjacent/none,dependency
25,5,b,853,b,TRUE,1,10.3,2,5,41,221,0,none,none,5_41,none/none,none
25,6,f,777,f,TRUE,1,10.3,4,5,42,222,0,none,none,5_42,none/none,none
25,7,r,777,r,TRUE,1,10.3,10,5,43,223,0,none,adjacent,5_43,none/adjacent,NA
25,8,y,896,y,TRUE,1,10.3,3,5,44,224,0,adjacent,none,5_44,adjacent/none,dependency
25,9,h,2011,h,TRUE,1,10.3,12,5,45,225,0,none,none,5_45,none/none,none
26,1,h,1199,h,TRUE,1,10.3,12,6,1,226,0,none,none,6_1,none/none,none
26,3,r,769,r,TRUE,1,10.3,10,6,3,228,0,none,adjacent,6_3,none/adjacent,NA
26,4,y,720,y,TRUE,1,10.3,3,6,4,229,0,adjacent,none,6_4,adjacent/none,dependency
26,5,b,882,b,TRUE,1,10.3,2,6,5,230,0,none,none,6_5,none/none,none
26,6,n,1285,n,TRUE,1,10.3,11,6,6,231,0,none,nonadjacent,6_6,none/nonadjacent,NA
26,7,f,1120,f,TRUE,1,10.3,4,6,7,232,1,none,none,6_7,none/none,none
26,8,v,889,v,TRUE,1,10.3,7,6,8,233,0,nonadjacent,none,6_8,nonadjacent/none,dependency
26,9,t,884,t,TRUE,1,10.3,8,6,9,234,0,none,none,6_9,none/none,none
27,1,b,1483,b,TRUE,1,10.3,2,6,10,235,0,none,none,6_10,none/none,none
27,2,t,871,t,TRUE,1,10.3,8,6,11,236,0,none,none,6_11,none/none,none
27,3,r,922,r,TRUE,1,10.3,10,6,12,237,0,none,adjacent,6_12,none/adjacent,NA
27,4,y,963,y,TRUE,1,10.3,3,6,13,238,0,adjacent,none,6_13,adjacent/none,dependency
27,5,f,811,f,TRUE,1,10.3,4,6,14,239,0,none,none,6_14,none/none,none
27,6,n,969,n,TRUE,1,10.3,11,6,15,240,0,none,nonadjacent,6_15,none/nonadjacent,NA
27,8,v,1038,v,TRUE,1,10.3,7,6,17,242,0,nonadjacent,none,6_17,nonadjacent/none,dependency
27,9,h,779,h,TRUE,1,10.3,12,6,18,243,0,none,none,6_18,none/none,none
28,1,t,1874,t,TRUE,1,10.3,8,6,19,244,0,none,none,6_19,none/none,none
28,2,f,1373,f,TRUE,1,10.3,4,6,20,245,0,none,none,6_20,none/none,none
28,3,r,1700,r,TRUE,1,10.3,10,6,21,246,0,none,adjacent,6_21,none/adjacent,NA
28,4,y,1470,y,TRUE,1,10.3,3,6,22,247,0,adjacent,none,6_22,adjacent/none,dependency
28,5,h,769,f,FALSE,1,10.3,12,6,23,248,0,none,none,6_23,none/none,none
28,6,n,2721,n,TRUE,1,10.3,11,6,24,249,0,none,nonadjacent,6_24,none/nonadjacent,NA
28,7,b,2625,b,TRUE,1,10.3,2,6,25,250,1,none,none,6_25,none/none,none
28,8,v,861,v,TRUE,1,10.3,7,6,26,251,0,nonadjacent,none,6_26,nonadjacent/none,dependency
29,1,f,3178,f,TRUE,1,10.3,4,6,28,253,0,none,none,6_28,none/none,none
29,2,h,2224,h,TRUE,1,10.3,12,6,29,254,0,none,none,6_29,none/none,none
29,3,r,788,r,TRUE,1,10.3,10,6,30,255,0,none,adjacent,6_30,none/adjacent,NA
29,4,y,1555,y,TRUE,1,10.3,3,6,31,256,0,adjacent,none,6_31,adjacent/none,dependency
29,6,n,793,n,TRUE,1,10.3,11,6,33,258,0,none,nonadjacent,6_33,none/nonadjacent,NA
29,7,t,744,t,TRUE,1,10.3,8,6,34,259,1,none,none,6_34,none/none,none
29,8,v,833,v,TRUE,1,10.3,7,6,35,260,0,nonadjacent,none,6_35,nonadjacent/none,dependency
29,9,b,846,b,TRUE,1,10.3,2,6,36,261,0,none,none,6_36,none/none,none
30,2,b,1497,b,TRUE,1,10.3,2,6,38,263,0,none,none,6_38,none/none,none
30,3,r,756,r,TRUE,1,10.3,10,6,39,264,0,none,adjacent,6_39,none/adjacent,NA
30,4,y,811,y,TRUE,1,10.3,3,6,40,265,0,adjacent,none,6_40,adjacent/none,dependency
30,5,t,945,t,TRUE,1,10.3,8,6,41,266,0,none,none,6_41,none/none,none
30,6,n,1794,n,TRUE,1,10.3,11,6,42,267,0,none,nonadjacent,6_42,none/nonadjacent,NA
30,7,h,1167,h,TRUE,1,10.3,12,6,43,268,1,none,none,6_43,none/none,none
30,8,v,1383,v,TRUE,1,10.3,7,6,44,269,0,nonadjacent,none,6_44,nonadjacent/none,dependency
30,9,f,926,f,TRUE,1,10.3,4,6,45,270,0,none,none,6_45,none/none,none
31,2,n,1332,n,TRUE,1,10.3,11,7,2,272,0,none,nonadjacent,7_2,none/nonadjacent,NA
31,3,v,1781,v,TRUE,1,10.3,7,7,3,273,1,none,none,7_3,none/none,none
31,4,r,2012,r,TRUE,1,10.3,10,7,4,274,0,nonadjacent,adjacent,7_4,nonadjacent/adjacent,dependency
31,5,h,2576,h,TRUE,1,10.3,12,7,5,275,0,adjacent,none,7_5,adjacent/none,dependency
31,6,b,758,b,TRUE,1,10.3,2,7,6,276,0,none,none,7_6,none/none,none
31,7,t,710,t,TRUE,1,10.3,8,7,7,277,0,none,none,7_7,none/none,none
31,8,y,848,y,TRUE,1,10.3,3,7,8,278,0,none,none,7_8,none/none,none
31,9,f,773,f,TRUE,1,10.3,4,7,9,279,0,none,none,7_9,none/none,none
32,1,n,778,n,TRUE,1,10.3,11,7,10,280,0,none,nonadjacent,7_10,none/nonadjacent,NA
32,2,b,794,b,TRUE,1,10.3,2,7,11,281,1,none,none,7_11,none/none,none
32,3,f,2609,f,TRUE,1,10.3,4,7,12,282,0,nonadjacent,none,7_12,nonadjacent/none,dependency
32,4,y,1029,y,TRUE,1,10.3,3,7,13,283,0,none,none,7_13,none/none,none
32,6,v,827,v,TRUE,1,10.3,7,7,15,285,0,none,none,7_15,none/none,none
32,7,r,688,r,TRUE,1,10.3,10,7,16,286,0,none,adjacent,7_16,none/adjacent,NA
32,8,h,1594,h,TRUE,1,10.3,12,7,17,287,0,adjacent,none,7_17,adjacent/none,dependency
32,9,t,3017,t,TRUE,1,10.3,8,7,18,288,0,none,none,7_18,none/none,none
33,1,t,1068,t,TRUE,1,10.3,8,7,19,289,0,none,none,7_19,none/none,none
33,2,f,856,f,TRUE,1,10.3,4,7,20,290,0,none,none,7_20,none/none,none
33,3,r,716,r,TRUE,1,10.3,10,7,21,291,0,none,adjacent,7_21,none/adjacent,NA
33,5,b,1723,b,TRUE,1,10.3,2,7,23,293,0,none,none,7_23,none/none,none
33,6,h,979,h,TRUE,1,10.3,12,7,24,294,0,none,none,7_24,none/none,none
33,7,y,890,y,TRUE,1,10.3,3,7,25,295,0,none,none,7_25,none/none,none
33,8,v,1357,v,TRUE,1,10.3,7,7,26,296,0,none,none,7_26,none/none,none
33,9,n,964,n,TRUE,1,10.3,11,7,27,297,0,none,nonadjacent,7_27,none/nonadjacent,NA
34,1,v,2164,v,TRUE,1,10.3,7,7,28,298,1,none,none,7_28,none/none,none
34,2,h,1292,h,TRUE,1,10.3,12,7,29,299,0,nonadjacent,none,7_29,nonadjacent/none,dependency
34,3,t,998,t,TRUE,1,10.3,8,7,30,300,0,none,none,7_30,none/none,none
34,4,b,924,b,TRUE,1,10.3,2,7,31,301,0,none,none,7_31,none/none,none
34,5,r,2214,r,TRUE,1,10.3,10,7,32,302,0,none,adjacent,7_32,none/adjacent,NA
34,6,n,3259,n,TRUE,1,10.3,11,7,33,303,0,adjacent,nonadjacent,7_33,adjacent/nonadjacent,dependency
34,8,f,2049,f,TRUE,1,10.3,4,7,35,305,0,nonadjacent,none,7_35,nonadjacent/none,dependency
34,9,y,1765,y,TRUE,1,10.3,3,7,36,306,0,none,none,7_36,none/none,none
35,1,r,1060,r,TRUE,1,10.3,10,7,37,307,0,none,adjacent,7_37,none/adjacent,NA
35,2,t,913,t,TRUE,1,10.3,8,7,38,308,0,adjacent,none,7_38,adjacent/none,dependency
35,3,y,1002,y,TRUE,1,10.3,3,7,39,309,0,none,none,7_39,none/none,none
35,4,v,952,v,TRUE,1,10.3,7,7,40,310,0,none,none,7_40,none/none,none
35,5,n,872,n,TRUE,1,10.3,11,7,41,311,0,none,nonadjacent,7_41,none/nonadjacent,NA
35,7,f,849,f,TRUE,1,10.3,4,7,43,313,0,nonadjacent,none,7_43,nonadjacent/none,dependency
35,8,b,1389,b,TRUE,1,10.3,2,7,44,314,0,none,none,7_44,none/none,none
35,9,h,755,h,TRUE,1,10.3,12,7,45,315,0,none,none,7_45,none/none,none
1051,1,f,2571,f,TRUE,2,10.7,4,1,1,1,0,none,none,1_1,none/none,none
1051,3,r,1889,r,TRUE,2,10.7,10,1,3,3,0,none,adjacent,1_3,none/adjacent,NA
1051,4,v,1810,v,TRUE,2,10.7,7,1,4,4,0,adjacent,none,1_4,adjacent/none,dependency
1051,5,t,2502,t,TRUE,2,10.7,8,1,5,5,0,none,none,1_5,none/none,none
1051,6,n,1362,n,TRUE,2,10.7,11,1,6,6,0,none,nonadjacent,1_6,none/nonadjacent,NA
1051,7,h,1547,h,TRUE,2,10.7,12,1,7,7,1,none,none,1_7,none/none,none
1051,8,y,1080,y,TRUE,2,10.7,3,1,8,8,0,nonadjacent,none,1_8,nonadjacent/none,dependency
1051,9,b,2101,b,TRUE,2,10.7,2,1,9,9,0,none,none,1_9,none/none,none
1052,2,t,4237,t,TRUE,2,10.7,8,1,11,11,0,none,none,1_11,none/none,none
1052,3,r,890,r,TRUE,2,10.7,10,1,12,12,0,none,adjacent,1_12,none/adjacent,NA
1052,4,v,970,v,TRUE,2,10.7,7,1,13,13,0,adjacent,none,1_13,adjacent/none,dependency
1052,5,h,1055,y,FALSE,2,10.7,12,1,14,14,0,none,none,1_14,none/none,none
1052,6,n,1592,n,TRUE,2,10.7,11,1,15,15,0,none,nonadjacent,1_15,none/nonadjacent,NA
1052,7,b,1172,b,TRUE,2,10.7,2,1,16,16,1,none,none,1_16,none/none,none
1052,8,y,1127,y,TRUE,2,10.7,3,1,17,17,0,nonadjacent,none,1_17,nonadjacent/none,dependency
1052,9,f,1612,f,TRUE,2,10.7,4,1,18,18,0,none,none,1_18,none/none,none
1053,1,h,1103,h,TRUE,2,10.7,12,1,19,19,0,none,none,1_19,none/none,none
1053,2,b,1664,b,TRUE,2,10.7,2,1,20,20,0,none,none,1_20,none/none,none
1053,3,r,1470,r,TRUE,2,10.7,10,1,21,21,0,none,adjacent,1_21,none/adjacent,NA
1053,4,v,847,v,TRUE,2,10.7,7,1,22,22,0,adjacent,none,1_22,adjacent/none,dependency
1053,5,f,1305,f,TRUE,2,10.7,4,1,23,23,0,none,none,1_23,none/none,none
1053,6,n,1096,n,TRUE,2,10.7,11,1,24,24,0,none,nonadjacent,1_24,none/nonadjacent,NA
1053,8,y,870,y,TRUE,2,10.7,3,1,26,26,0,nonadjacent,none,1_26,nonadjacent/none,dependency
1053,9,t,2107,t,TRUE,2,10.7,8,1,27,27,0,none,none,1_27,none/none,none
1054,1,b,913,b,TRUE,2,10.7,2,1,28,28,0,none,none,1_28,none/none,none
1054,2,f,2117,f,TRUE,2,10.7,4,1,29,29,0,none,none,1_29,none/none,none
1054,3,r,1136,r,TRUE,2,10.7,10,1,30,30,0,none,adjacent,1_30,none/adjacent,NA
1054,4,v,814,v,TRUE,2,10.7,7,1,31,31,0,adjacent,none,1_31,adjacent/none,dependency
1054,6,n,928,n,TRUE,2,10.7,11,1,33,33,0,none,nonadjacent,1_33,none/nonadjacent,NA
1054,7,t,814,t,TRUE,2,10.7,8,1,34,34,1,none,none,1_34,none/none,none
1054,8,y,933,y,TRUE,2,10.7,3,1,35,35,0,nonadjacent,none,1_35,nonadjacent/none,dependency
1054,9,h,924,h,TRUE,2,10.7,12,1,36,36,0,none,none,1_36,none/none,none
1055,1,t,3749,t,TRUE,2,10.7,8,1,37,37,0,none,none,1_37,none/none,none
1055,2,h,1000,h,TRUE,2,10.7,12,1,38,38,0,none,none,1_38,none/none,none
1055,3,r,849,r,TRUE,2,10.7,10,1,39,39,0,none,adjacent,1_39,none/adjacent,NA
1055,4,v,771,v,TRUE,2,10.7,7,1,40,40,0,adjacent,none,1_40,adjacent/none,dependency
1055,5,b,922,b,TRUE,2,10.7,2,1,41,41,0,none,none,1_41,none/none,none
1055,6,n,1039,n,TRUE,2,10.7,11,1,42,42,0,none,nonadjacent,1_42,none/nonadjacent,NA
1055,7,f,1775,f,TRUE,2,10.7,4,1,43,43,1,none,none,1_43,none/none,none
1055,8,y,926,y,TRUE,2,10.7,3,1,44,44,0,nonadjacent,none,1_44,nonadjacent/none,dependency
1056,1,f,910,f,TRUE,2,10.7,4,2,1,46,0,none,none,2_1,none/none,none
1056,2,n,1185,n,TRUE,2,10.7,11,2,2,47,0,none,nonadjacent,2_2,none/nonadjacent,NA
1056,3,t,934,t,TRUE,2,10.7,8,2,3,48,1,none,none,2_3,none/none,none
1056,4,y,1110,y,TRUE,2,10.7,3,2,4,49,0,nonadjacent,none,2_4,nonadjacent/none,dependency
1056,5,h,1056,h,TRUE,2,10.7,12,2,5,50,0,none,none,2_5,none/none,none
1056,6,b,1274,b,TRUE,2,10.7,2,2,6,51,0,none,none,2_6,none/none,none
1056,7,r,868,r,TRUE,2,10.7,10,2,7,52,0,none,adjacent,2_7,none/adjacent,NA
1056,8,v,825,v,TRUE,2,10.7,7,2,8,53,0,adjacent,none,2_8,adjacent/none,dependency
1057,1,t,2814,t,TRUE,2,10.7,8,2,10,55,0,none,none,2_10,none/none,none
1057,2,n,1243,n,TRUE,2,10.7,11,2,11,56,0,none,nonadjacent,2_11,none/nonadjacent,NA
1057,3,b,1321,b,TRUE,2,10.7,2,2,12,57,1,none,none,2_12,none/none,none
1057,4,y,3098,y,TRUE,2,10.7,3,2,13,58,0,nonadjacent,none,2_13,nonadjacent/none,dependency
1057,5,f,1090,f,TRUE,2,10.7,4,2,14,59,0,none,none,2_14,none/none,none
1057,7,r,1956,r,TRUE,2,10.7,10,2,16,61,0,none,adjacent,2_16,none/adjacent,NA
1057,8,v,999,v,TRUE,2,10.7,7,2,17,62,0,adjacent,none,2_17,adjacent/none,dependency
1057,9,h,1136,h,TRUE,2,10.7,12,2,18,63,0,none,none,2_18,none/none,none
1058,2,n,1252,n,TRUE,2,10.7,11,2,20,65,0,none,nonadjacent,2_20,none/nonadjacent,NA
1058,3,h,964,h,TRUE,2,10.7,12,2,21,66,1,none,none,2_21,none/none,none
1058,4,y,840,y,TRUE,2,10.7,3,2,22,67,0,nonadjacent,none,2_22,nonadjacent/none,dependency
1058,5,b,945,b,TRUE,2,10.7,2,2,23,68,0,none,none,2_23,none/none,none
1058,6,f,801,f,TRUE,2,10.7,4,2,24,69,0,none,none,2_24,none/none,none
1058,7,r,869,r,TRUE,2,10.7,10,2,25,70,0,none,adjacent,2_25,none/adjacent,NA
1058,8,v,810,v,TRUE,2,10.7,7,2,26,71,0,adjacent,none,2_26,adjacent/none,dependency
1058,9,t,823,t,TRUE,2,10.7,8,2,27,72,0,none,none,2_27,none/none,none
1059,1,h,801,h,TRUE,2,10.7,12,2,28,73,0,none,none,2_28,none/none,none
1059,2,n,1188,n,TRUE,2,10.7,11,2,29,74,0,none,nonadjacent,2_29,none/nonadjacent,NA
1059,3,f,3017,f,TRUE,2,10.7,4,2,30,75,1,none,none,2_30,none/none,none
1059,4,y,1111,y,TRUE,2,10.7,3,2,31,76,0,nonadjacent,none,2_31,nonadjacent/none,dependency
1059,6,t,743,t,TRUE,2,10.7,8,2,33,78,0,none,none,2_33,none/none,none
1059,7,r,625,r,TRUE,2,10.7,10,2,34,79,0,none,adjacent,2_34,none/adjacent,NA
1059,8,v,769,v,TRUE,2,10.7,7,2,35,80,0,adjacent,none,2_35,adjacent/none,dependency
1059,9,b,910,b,TRUE,2,10.7,2,2,36,81,0,none,none,2_36,none/none,none
1060,1,b,940,b,TRUE,2,10.7,2,2,37,82,0,none,none,2_37,none/none,none
1060,2,n,836,n,TRUE,2,10.7,11,2,38,83,0,none,nonadjacent,2_38,none/nonadjacent,NA
1060,4,y,769,y,TRUE,2,10.7,3,2,40,85,0,nonadjacent,none,2_40,nonadjacent/none,dependency
1060,5,t,1047,t,TRUE,2,10.7,8,2,41,86,0,none,none,2_41,none/none,none
1060,6,h,895,h,TRUE,2,10.7,12,2,42,87,0,none,none,2_42,none/none,none
1060,7,r,832,r,TRUE,2,10.7,10,2,43,88,0,none,adjacent,2_43,none/adjacent,NA
1060,8,v,992,v,TRUE,2,10.7,7,2,44,89,0,adjacent,none,2_44,adjacent/none,dependency
1060,9,f,808,f,TRUE,2,10.7,4,2,45,90,0,none,none,2_45,none/none,none
1061,1,f,766,f,TRUE,2,10.7,4,3,1,91,0,none,none,3_1,none/none,none
1061,2,b,755,b,TRUE,2,10.7,2,3,2,92,0,none,none,3_2,none/none,none
1061,3,r,775,r,TRUE,2,10.7,10,3,3,93,0,none,adjacent,3_3,none/adjacent,NA
1061,4,v,766,v,TRUE,2,10.7,7,3,4,94,0,adjacent,none,3_4,adjacent/none,dependency
1061,5,t,701,t,TRUE,2,10.7,8,3,5,95,0,none,none,3_5,none/none,none
1061,6,n,824,n,TRUE,2,10.7,11,3,6,96,0,none,nonadjacent,3_6,none/nonadjacent,NA
1061,7,h,582,h,TRUE,2,10.7,12,3,7,97,1,none,none,3_7,none/none,none
1061,8,y,728,y,TRUE,2,10.7,3,3,8,98,0,nonadjacent,none,3_8,nonadjacent/none,dependency
1062,2,f,678,f,TRUE,2,10.7,4,3,11,101,0,none,none,3_11,none/none,none
1062,3,r,502,r,TRUE,2,10.7,10,3,12,102,0,none,adjacent,3_12,none/adjacent,NA
1062,4,v,812,v,TRUE,2,10.7,7,3,13,103,0,adjacent,none,3_13,adjacent/none,dependency
1062,5,h,928,h,TRUE,2,10.7,12,3,14,104,0,none,none,3_14,none/none,none
1062,6,n,983,n,TRUE,2,10.7,11,3,15,105,0,none,nonadjacent,3_15,none/nonadjacent,NA
1062,7,b,756,b,TRUE,2,10.7,2,3,16,106,1,none,none,3_16,none/none,none
1062,8,y,1018,y,TRUE,2,10.7,3,3,17,107,0,nonadjacent,none,3_17,nonadjacent/none,dependency
1062,9,t,934,t,TRUE,2,10.7,8,3,18,108,0,none,none,3_18,none/none,none
1063,1,t,759,t,TRUE,2,10.7,8,3,19,109,0,none,none,3_19,none/none,none
1063,3,r,759,r,TRUE,2,10.7,10,3,21,111,0,none,adjacent,3_21,none/adjacent,NA
1063,4,v,684,v,TRUE,2,10.7,7,3,22,112,0,adjacent,none,3_22,adjacent/none,dependency
1063,5,b,685,b,TRUE,2,10.7,2,3,23,113,0,none,none,3_23,none/none,none
1063,6,n,872,n,TRUE,2,10.7,11,3,24,114,0,none,nonadjacent,3_24,none/nonadjacent,NA
1063,7,f,981,f,TRUE,2,10.7,4,3,25,115,1,none,none,3_25,none/none,none
1063,8,y,900,y,TRUE,2,10.7,3,3,26,116,0,nonadjacent,none,3_26,nonadjacent/none,dependency
1063,9,h,998,h,TRUE,2,10.7,12,3,27,117,0,none,none,3_27,none/none,none
1064,1,b,774,b,TRUE,2,10.7,2,3,28,118,0,none,none,3_28,none/none,none
1064,2,h,956,h,TRUE,2,10.7,12,3,29,119,0,none,none,3_29,none/none,none
1064,3,r,655,r,TRUE,2,10.7,10,3,30,120,0,none,adjacent,3_30,none/adjacent,NA
1064,4,v,717,v,TRUE,2,10.7,7,3,31,121,0,adjacent,none,3_31,adjacent/none,dependency
1064,6,n,781,n,TRUE,2,10.7,11,3,33,123,0,none,nonadjacent,3_33,none/nonadjacent,NA
1064,7,t,797,t,TRUE,2,10.7,8,3,34,124,1,none,none,3_34,none/none,none
1064,8,y,767,y,TRUE,2,10.7,3,3,35,125,0,nonadjacent,none,3_35,nonadjacent/none,dependency
1064,9,f,789,f,TRUE,2,10.7,4,3,36,126,0,none,none,3_36,none/none,none
1065,1,h,1467,h,TRUE,2,10.7,12,3,37,127,0,none,none,3_37,none/none,none
1065,2,t,756,t,TRUE,2,10.7,8,3,38,128,0,none,none,3_38,none/none,none
1065,3,r,792,r,TRUE,2,10.7,10,3,39,129,0,none,adjacent,3_39,none/adjacent,NA
1065,4,v,737,v,TRUE,2,10.7,7,3,40,130,0,adjacent,none,3_40,adjacent/none,dependency
1065,5,f,691,f,TRUE,2,10.7,4,3,41,131,0,none,none,3_41,none/none,none
1065,6,n,743,b,FALSE,2,10.7,11,3,42,132,0,none,nonadjacent,3_42,none/nonadjacent,NA
1065,8,y,826,y,TRUE,2,10.7,3,3,44,134,0,nonadjacent,none,3_44,nonadjacent/none,dependency
1065,9,b,1073,b,TRUE,2,10.7,2,3,45,135,0,none,none,3_45,none/none,none
1066,1,f,1326,f,TRUE,2,10.7,4,4,1,136,0,none,none,4_1,none/none,none
1066,2,n,1065,n,TRUE,2,10.7,11,4,2,137,0,none,nonadjacent,4_2,none/nonadjacent,NA
1066,4,y,1169,y,TRUE,2,10.7,3,4,4,139,0,nonadjacent,none,4_4,nonadjacent/none,dependency
1066,5,t,620,t,TRUE,2,10.7,8,4,5,140,0,none,none,4_5,none/none,none
1066,6,h,780,h,TRUE,2,10.7,12,4,6,141,0,none,none,4_6,none/none,none
1066,7,r,676,r,TRUE,2,10.7,10,4,7,142,0,none,adjacent,4_7,none/adjacent,NA
1066,8,v,765,v,TRUE,2,10.7,7,4,8,143,0,adjacent,none,4_8,adjacent/none,dependency
1066,9,b,746,b,TRUE,2,10.7,2,4,9,144,0,none,none,4_9,none/none,none
1067,1,h,1221,h,TRUE,2,10.7,12,4,10,145,0,none,none,4_10,none/none,none
1067,2,n,1320,n,TRUE,2,10.7,11,4,11,146,0,none,nonadjacent,4_11,none/nonadjacent,NA
1067,3,b,1145,b,TRUE,2,10.7,2,4,12,147,1,none,none,4_12,none/none,none
1067,4,y,712,y,TRUE,2,10.7,3,4,13,148,0,nonadjacent,none,4_13,nonadjacent/none,dependency
1067,5,f,687,f,TRUE,2,10.7,4,4,14,149,0,none,none,4_14,none/none,none
1067,7,r,585,r,TRUE,2,10.7,10,4,16,151,0,none,adjacent,4_16,none/adjacent,NA
1067,8,v,876,v,TRUE,2,10.7,7,4,17,152,0,adjacent,none,4_17,adjacent/none,dependency
1067,9,t,580,t,TRUE,2,10.7,8,4,18,153,0,none,none,4_18,none/none,none
1068,1,b,819,b,TRUE,2,10.7,2,4,19,154,0,none,none,4_19,none/none,none
1068,2,n,690,n,TRUE,2,10.7,11,4,20,155,0,none,nonadjacent,4_20,none/nonadjacent,NA
1068,3,f,1396,f,TRUE,2,10.7,4,4,21,156,1,none,none,4_21,none/none,none
1068,4,y,883,y,TRUE,2,10.7,3,4,22,157,0,nonadjacent,none,4_22,nonadjacent/none,dependency
1068,6,t,1014,t,TRUE,2,10.7,8,4,24,159,0,none,none,4_24,none/none,none
1068,7,r,649,r,TRUE,2,10.7,10,4,25,160,0,none,adjacent,4_25,none/adjacent,NA
1068,8,v,894,v,TRUE,2,10.7,7,4,26,161,0,adjacent,none,4_26,adjacent/none,dependency
1068,9,h,671,h,TRUE,2,10.7,12,4,27,162,0,none,none,4_27,none/none,none
1069,1,t,1077,t,TRUE,2,10.7,8,4,28,163,0,none,none,4_28,none/none,none
1069,2,n,1105,n,TRUE,2,10.7,11,4,29,164,0,none,nonadjacent,4_29,none/nonadjacent,NA
1069,3,h,1275,h,TRUE,2,10.7,12,4,30,165,1,none,none,4_30,none/none,none
1069,4,y,599,y,TRUE,2,10.7,3,4,31,166,0,nonadjacent,none,4_31,nonadjacent/none,dependency
1069,5,b,1858,b,TRUE,2,10.7,2,4,32,167,0,none,none,4_32,none/none,none
1069,6,f,1000,f,TRUE,2,10.7,4,4,33,168,0,none,none,4_33,none/none,none
1069,7,r,673,r,TRUE,2,10.7,10,4,34,169,0,none,adjacent,4_34,none/adjacent,NA
1069,8,v,863,v,TRUE,2,10.7,7,4,35,170,0,adjacent,none,4_35,adjacent/none,dependency
1070,2,n,1089,n,TRUE,2,10.7,11,4,38,173,0,none,nonadjacent,4_38,none/nonadjacent,NA
1070,3,t,640,t,TRUE,2,10.7,8,4,39,174,1,none,none,4_39,none/none,none
1070,4,y,755,y,TRUE,2,10.7,3,4,40,175,0,nonadjacent,none,4_40,nonadjacent/none,dependency
1070,5,h,871,h,TRUE,2,10.7,12,4,41,176,0,none,none,4_41,none/none,none
1070,6,b,1629,b,TRUE,2,10.7,2,4,42,177,0,none,none,4_42,none/none,none
1070,7,r,662,r,TRUE,2,10.7,10,4,43,178,0,none,adjacent,4_43,none/adjacent,NA
1070,8,v,1045,v,TRUE,2,10.7,7,4,44,179,0,adjacent,none,4_44,adjacent/none,dependency
1070,9,f,853,f,TRUE,2,10.7,4,4,45,180,0,none,none,4_45,none/none,none
1071,2,b,1009,b,TRUE,2,10.7,2,5,2,182,0,none,none,5_2,none/none,none
1071,3,r,580,r,TRUE,2,10.7,10,5,3,183,0,none,adjacent,5_3,none/adjacent,NA
1071,4,v,685,v,TRUE,2,10.7,7,5,4,184,0,adjacent,none,5_4,adjacent/none,dependency
1071,5,t,616,t,TRUE,2,10.7,8,5,5,185,0,none,none,5_5,none/none,none
1071,6,n,814,n,TRUE,2,10.7,11,5,6,186,0,none,nonadjacent,5_6,none/nonadjacent,NA
1071,7,h,637,h,TRUE,2,10.7,12,5,7,187,1,none,none,5_7,none/none,none
1071,8,y,990,y,TRUE,2,10.7,3,5,8,188,0,nonadjacent,none,5_8,nonadjacent/none,dependency
1071,9,f,638,f,TRUE,2,10.7,4,5,9,189,0,none,none,5_9,none/none,none
1072,1,f,429,f,TRUE,2,10.7,4,5,10,190,0,none,none,5_10,none/none,none
1072,2,h,807,h,TRUE,2,10.7,12,5,11,191,0,none,none,5_11,none/none,none
1072,3,r,899,t,FALSE,2,10.7,10,5,12,192,0,none,adjacent,5_12,none/adjacent,NA
1072,4,v,879,v,TRUE,2,10.7,7,5,13,193,0,adjacent,none,5_13,adjacent/none,dependency
1072,6,n,737,n,TRUE,2,10.7,11,5,15,195,0,none,nonadjacent,5_15,none/nonadjacent,NA
1072,7,t,929,t,TRUE,2,10.7,8,5,16,196,1,none,none,5_16,none/none,none
1072,8,y,816,y,TRUE,2,10.7,3,5,17,197,0,nonadjacent,none,5_17,nonadjacent/none,dependency
1072,9,b,878,b,TRUE,2,10.7,2,5,18,198,0,none,none,5_18,none/none,none
1073,1,h,971,h,TRUE,2,10.7,12,5,19,199,0,none,none,5_19,none/none,none
1073,3,r,893,r,TRUE,2,10.7,10,5,21,201,0,none,adjacent,5_21,none/adjacent,NA
1073,4,v,735,v,TRUE,2,10.7,7,5,22,202,0,adjacent,none,5_22,adjacent/none,dependency
1073,5,b,903,b,TRUE,2,10.7,2,5,23,203,0,none,none,5_23,none/none,none
1073,6,n,897,n,TRUE,2,10.7,11,5,24,204,0,none,nonadjacent,5_24,none/nonadjacent,NA
1073,7,f,868,f,TRUE,2,10.7,4,5,25,205,1,none,none,5_25,none/none,none
1073,8,y,753,y,TRUE,2,10.7,3,5,26,206,0,nonadjacent,none,5_26,nonadjacent/none,dependency
1073,9,t,597,t,TRUE,2,10.7,8,5,27,207,0,none,none,5_27,none/none,none
1074,1,t,878,t,TRUE,2,10.7,8,5,28,208,0,none,none,5_28,none/none,none
1074,2,f,1125,f,TRUE,2,10.7,4,5,29,209,0,none,none,5_29,none/none,none
1074,3,r,673,r,TRUE,2,10.7,10,5,30,210,0,none,adjacent,5_30,none/adjacent,NA
1074,4,v,673,v,TRUE,2,10.7,7,5,31,211,0,adjacent,none,5_31,adjacent/none,dependency
1074,5,h,976,h,TRUE,2,10.7,12,5,32,212,0,none,none,5_32,none/none,none
1074,6,n,1062,n,TRUE,2,10.7,11,5,33,213,0,none,nonadjacent,5_33,none/nonadjacent,NA
1074,7,b,809,b,TRUE,2,10.7,2,5,34,214,1,none,none,5_34,none/none,none
1074,8,y,749,y,TRUE,2,10.7,3,5,35,215,0,nonadjacent,none,5_35,nonadjacent/none,dependency
1075,1,b,770,b,TRUE,2,10.7,2,5,37,217,0,none,none,5_37,none/none,none
1075,2,t,952,t,TRUE,2,10.7,8,5,38,218,0,none,none,5_38,none/none,none
1075,3,r,745,r,TRUE,2,10.7,10,5,39,219,0,none,adjacent,5_39,none/adjacent,NA
1075,4,v,748,v,TRUE,2,10.7,7,5,40,220,0,adjacent,none,5_40,adjacent/none,dependency
1075,5,f,1208,f,TRUE,2,10.7,4,5,41,221,0,none,none,5_41,none/none,none
1075,6,n,913,n,TRUE,2,10.7,11,5,42,222,0,none,nonadjacent,5_42,none/nonadjacent,NA
1075,8,y,647,y,TRUE,2,10.7,3,5,44,224,0,nonadjacent,none,5_44,nonadjacent/none,dependency
1075,9,h,620,h,TRUE,2,10.7,12,5,45,225,0,none,none,5_45,none/none,none
1076,1,h,1033,h,TRUE,2,10.7,12,6,1,226,0,none,none,6_1,none/none,none
1076,2,n,975,n,TRUE,2,10.7,11,6,2,227,0,none,nonadjacent,6_2,none/nonadjacent,NA
1076,3,t,814,t,TRUE,2,10.7,8,6,3,228,1,none,none,6_3,none/none,none
1076,4,y,963,y,TRUE,2,10.7,3,6,4,229,0,nonadjacent,none,6_4,nonadjacent/none,dependency
1076,5,f,727,f,TRUE,2,10.7,4,6,5,230,0,none,none,6_5,none/none,none
1076,7,r,516,r,TRUE,2,10.7,10,6,7,232,0,none,adjacent,6_7,none/adjacent,NA
1076,8,v,606,v,TRUE,2,10.7,7,6,8,233,0,adjacent,none,6_8,adjacent/none,dependency
1076,9,b,795,b,TRUE,2,10.7,2,6,9,234,0,none,none,6_9,none/none,none
1077,2,n,763,n,TRUE,2,10.7,11,6,11,236,0,none,nonadjacent,6_11,none/nonadjacent,NA
1077,3,f,1129,f,TRUE,2,10.7,4,6,12,237,1,none,none,6_12,none/none,none
1077,4,y,735,y,TRUE,2,10.7,3,6,13,238,0,nonadjacent,none,6_13,nonadjacent/none,dependency
1077,5,h,831,h,TRUE,2,10.7,12,6,14,239,0,none,none,6_14,none/none,none
1077,6,b,1030,n,FALSE,2,10.7,2,6,15,240,0,none,none,6_15,none/none,none
1077,7,r,1294,r,TRUE,2,10.7,10,6,16,241,0,none,adjacent,6_16,none/adjacent,NA
1077,8,v,708,v,TRUE,2,10.7,7,6,17,242,0,adjacent,none,6_17,adjacent/none,dependency
1077,9,t,1080,t,TRUE,2,10.7,8,6,18,243,0,none,none,6_18,none/none,none
1078,1,b,802,b,TRUE,2,10.7,2,6,19,244,0,none,none,6_19,none/none,none
1078,2,n,998,n,TRUE,2,10.7,11,6,20,245,0,none,nonadjacent,6_20,none/nonadjacent,NA
1078,3,h,552,h,TRUE,2,10.7,12,6,21,246,1,none,none,6_21,none/none,none
1078,4,y,684,y,TRUE,2,10.7,3,6,22,247,0,nonadjacent,none,6_22,nonadjacent/none,dependency
1078,6,t,656,r,FALSE,2,10.7,8,6,24,249,0,none,none,6_24,none/none,none
1078,7,r,869,r,TRUE,2,10.7,10,6,25,250,0,none,adjacent,6_25,none/adjacent,NA
1078,8,v,1002,v,TRUE,2,10.7,7,6,26,251,0,adjacent,none,6_26,adjacent/none,dependency
1078,9,f,1165,f,TRUE,2,10.7,4,6,27,252,0,none,none,6_27,none/none,none
1079,1,t,931,t,TRUE,2,10.7,8,6,28,253,0,none,none,6_28,none/none,none
1079,2,n,1035,n,TRUE,2,10.7,11,6,29,254,0,none,nonadjacent,6_29,none/nonadjacent,NA
1079,4,y,788,y,TRUE,2,10.7,3,6,31,256,0,nonadjacent,none,6_31,nonadjacent/none,dependency
1079,5,b,837,b,TRUE,2,10.7,2,6,32,257,0,none,none,6_32,none/none,none
1079,6,f,726,r,FALSE,2,10.7,4,6,33,258,0,none,none,6_33,none/none,none
1079,7,r,1597,r,TRUE,2,10.7,10,6,34,259,0,none,adjacent,6_34,none/adjacent,NA
1079,8,v,658,v,TRUE,2,10.7,7,6,35,260,0,adjacent,none,6_35,adjacent/none,dependency
1079,9,h,1079,h,TRUE,2,10.7,12,6,36,261,0,none,none,6_36,none/none,none
1080,1,f,1314,f,TRUE,2,10.7,4,6,37,262,0,none,none,6_37,none/none,none
1080,2,n,932,n,TRUE,2,10.7,11,6,38,263,0,none,nonadjacent,6_38,none/nonadjacent,NA
1080,3,b,851,b,TRUE,2,10.7,2,6,39,264,1,none,none,6_39,none/none,none
1080,4,y,950,y,TRUE,2,10.7,3,6,40,265,0,nonadjacent,none,6_40,nonadjacent/none,dependency
1080,5,t,839,t,TRUE,2,10.7,8,6,41,266,0,none,none,6_41,none/none,none
1080,6,h,945,h,TRUE,2,10.7,12,6,42,267,0,none,none,6_42,none/none,none
1080,7,r,745,r,TRUE,2,10.7,10,6,43,268,0,none,adjacent,6_43,none/adjacent,NA
1080,8,v,708,v,TRUE,2,10.7,7,6,44,269,0,adjacent,none,6_44,adjacent/none,dependency
1081,1,f,602,f,TRUE,2,10.7,4,7,1,271,0,none,none,7_1,none/none,none
1081,3,b,865,b,TRUE,2,10.7,2,7,3,273,0,none,none,7_3,none/none,none
1081,4,h,2191,h,TRUE,2,10.7,12,7,4,274,0,none,none,7_4,none/none,none
1081,5,t,836,t,TRUE,2,10.7,8,7,5,275,0,none,none,7_5,none/none,none
1081,6,y,711,y,TRUE,2,10.7,3,7,6,276,0,none,none,7_6,none/none,none
1081,7,v,724,v,TRUE,2,10.7,7,7,7,277,0,none,none,7_7,none/none,none
1081,8,n,900,n,TRUE,2,10.7,11,7,8,278,0,none,nonadjacent,7_8,none/nonadjacent,NA
1081,9,r,646,r,TRUE,2,10.7,10,7,9,279,1,none,adjacent,7_9,none/adjacent,NA
1082,1,v,615,v,TRUE,2,10.7,7,7,10,280,0,both,none,7_10,both/none,dependency
1082,2,h,974,h,TRUE,2,10.7,12,7,11,281,0,none,none,7_11,none/none,none
1082,3,t,796,t,TRUE,2,10.7,8,7,12,282,0,none,none,7_12,none/none,none
1082,4,b,743,b,TRUE,2,10.7,2,7,13,283,0,none,none,7_13,none/none,none
1082,5,r,763,r,TRUE,2,10.7,10,7,14,284,0,none,adjacent,7_14,none/adjacent,NA
1082,6,n,767,n,TRUE,2,10.7,11,7,15,285,0,adjacent,nonadjacent,7_15,adjacent/nonadjacent,dependency
1082,8,f,865,f,TRUE,2,10.7,4,7,17,287,0,nonadjacent,none,7_17,nonadjacent/none,dependency
1082,9,y,1038,y,TRUE,2,10.7,3,7,18,288,0,none,none,7_18,none/none,none
1083,1,r,585,r,TRUE,2,10.7,10,7,19,289,0,none,adjacent,7_19,none/adjacent,NA
1083,2,t,803,t,TRUE,2,10.7,8,7,20,290,0,adjacent,none,7_20,adjacent/none,dependency
1083,3,y,1183,y,TRUE,2,10.7,3,7,21,291,0,none,none,7_21,none/none,none
1083,4,v,669,v,TRUE,2,10.7,7,7,22,292,0,none,none,7_22,none/none,none
1083,5,n,965,n,TRUE,2,10.7,11,7,23,293,0,none,nonadjacent,7_23,none/nonadjacent,NA
1083,7,f,654,f,TRUE,2,10.7,4,7,25,295,0,nonadjacent,none,7_25,nonadjacent/none,dependency
1083,8,b,787,b,TRUE,2,10.7,2,7,26,296,0,none,none,7_26,none/none,none
1083,9,h,1621,h,TRUE,2,10.7,12,7,27,297,0,none,none,7_27,none/none,none
1084,1,n,666,n,TRUE,2,10.7,11,7,28,298,0,none,nonadjacent,7_28,none/nonadjacent,NA
1084,2,b,769,b,TRUE,2,10.7,2,7,29,299,1,none,none,7_29,none/none,none
1084,3,f,615,f,TRUE,2,10.7,4,7,30,300,0,nonadjacent,none,7_30,nonadjacent/none,dependency
1084,4,y,2413,y,TRUE,2,10.7,3,7,31,301,0,none,none,7_31,none/none,none
1084,6,v,774,v,TRUE,2,10.7,7,7,33,303,0,none,none,7_33,none/none,none
1084,7,r,502,r,TRUE,2,10.7,10,7,34,304,0,none,adjacent,7_34,none/adjacent,NA
1084,8,h,1364,h,TRUE,2,10.7,12,7,35,305,0,adjacent,none,7_35,adjacent/none,dependency
1084,9,t,917,t,TRUE,2,10.7,8,7,36,306,0,none,none,7_36,none/none,none
1085,1,h,687,h,TRUE,2,10.7,12,7,37,307,0,none,none,7_37,none/none,none
1085,2,y,1008,y,TRUE,2,10.7,3,7,38,308,0,none,none,7_38,none/none,none
1085,4,n,806,n,TRUE,2,10.7,11,7,40,310,0,none,nonadjacent,7_40,none/nonadjacent,NA
1085,5,f,860,f,TRUE,2,10.7,4,7,41,311,1,none,none,7_41,none/none,none
1085,6,r,495,r,TRUE,2,10.7,10,7,42,312,0,nonadjacent,adjacent,7_42,nonadjacent/adjacent,dependency
1085,7,b,604,b,TRUE,2,10.7,2,7,43,313,0,adjacent,none,7_43,adjacent/none,dependency
1085,8,t,880,t,TRUE,2,10.7,8,7,44,314,0,none,none,7_44,none/none,none
1085,9,v,649,v,TRUE,2,10.7,7,7,45,315,0,none,none,7_45,none/none,none
386,1,h,2259,f,FALSE,3,10.3,12,1,1,1,0,none,none,1_1,none/none,none
386,2,n,1882,n,TRUE,3,10.3,11,1,2,2,0,none,nonadjacent,1_2,none/nonadjacent,NA
386,3,f,4665,f,TRUE,3,10.3,4,1,3,3,1,none,none,1_3,none/none,none
386,4,v,1513,v,TRUE,3,10.3,7,1,4,4,0,nonadjacent,none,1_4,nonadjacent/none,dependency
386,6,t,1165,t,TRUE,3,10.3,8,1,6,6,0,none,none,1_6,none/none,none
386,7,r,1239,r,TRUE,3,10.3,10,1,7,7,0,none,adjacent,1_7,none/adjacent,NA
386,8,y,2270,y,TRUE,3,10.3,3,1,8,8,0,adjacent,none,1_8,adjacent/none,dependency
386,9,b,1392,b,TRUE,3,10.3,2,1,9,9,0,none,none,1_9,none/none,none
387,1,f,1834,f,TRUE,3,10.3,4,1,10,10,0,none,none,1_10,none/none,none
387,2,n,1569,n,TRUE,3,10.3,11,1,11,11,0,none,nonadjacent,1_11,none/nonadjacent,NA
387,3,t,1217,t,TRUE,3,10.3,8,1,12,12,1,none,none,1_12,none/none,none
387,4,v,1619,v,TRUE,3,10.3,7,1,13,13,0,nonadjacent,none,1_13,nonadjacent/none,dependency
387,5,h,1778,h,TRUE,3,10.3,12,1,14,14,0,none,none,1_14,none/none,none
387,6,b,1912,b,TRUE,3,10.3,2,1,15,15,0,none,none,1_15,none/none,none
387,7,r,1668,r,TRUE,3,10.3,10,1,16,16,0,none,adjacent,1_16,none/adjacent,NA
387,8,y,1805,y,TRUE,3,10.3,3,1,17,17,0,adjacent,none,1_17,adjacent/none,dependency
388,1,b,1011,b,TRUE,3,10.3,2,1,19,19,0,none,none,1_19,none/none,none
388,2,n,2606,n,TRUE,3,10.3,11,1,20,20,0,none,nonadjacent,1_20,none/nonadjacent,NA
388,4,v,1125,v,TRUE,3,10.3,7,1,22,22,0,nonadjacent,none,1_22,nonadjacent/none,dependency
388,5,t,1336,t,TRUE,3,10.3,8,1,23,23,0,none,none,1_23,none/none,none
388,6,h,1212,y,FALSE,3,10.3,12,1,24,24,0,none,none,1_24,none/none,none
388,7,r,767,h,FALSE,3,10.3,10,1,25,25,0,none,adjacent,1_25,none/adjacent,NA
388,8,y,2285,y,TRUE,3,10.3,3,1,26,26,0,adjacent,none,1_26,adjacent/none,dependency
388,9,f,4481,f,TRUE,3,10.3,4,1,27,27,0,none,none,1_27,none/none,none
389,1,t,942,t,TRUE,3,10.3,8,1,28,28,0,none,none,1_28,none/none,none
389,2,n,1873,n,TRUE,3,10.3,11,1,29,29,0,none,nonadjacent,1_29,none/nonadjacent,NA
389,3,b,1166,b,TRUE,3,10.3,2,1,30,30,1,none,none,1_30,none/none,none
389,4,v,1273,v,TRUE,3,10.3,7,1,31,31,0,nonadjacent,none,1_31,nonadjacent/none,dependency
389,5,f,2083,f,TRUE,3,10.3,4,1,32,32,0,none,none,1_32,none/none,none
389,7,r,1079,r,TRUE,3,10.3,10,1,34,34,0,none,adjacent,1_34,none/adjacent,NA
389,8,y,2485,y,TRUE,3,10.3,3,1,35,35,0,adjacent,none,1_35,adjacent/none,dependency
389,9,h,1239,h,TRUE,3,10.3,12,1,36,36,0,none,none,1_36,none/none,none
390,2,n,1986,n,TRUE,3,10.3,11,1,38,38,0,none,nonadjacent,1_38,none/nonadjacent,NA
390,3,h,1218,h,TRUE,3,10.3,12,1,39,39,1,none,none,1_39,none/none,none
390,4,v,1125,v,TRUE,3,10.3,7,1,40,40,0,nonadjacent,none,1_40,nonadjacent/none,dependency
390,5,b,1240,b,TRUE,3,10.3,2,1,41,41,0,none,none,1_41,none/none,none
390,6,f,1191,f,TRUE,3,10.3,4,1,42,42,0,none,none,1_42,none/none,none
390,7,r,1205,r,TRUE,3,10.3,10,1,43,43,0,none,adjacent,1_43,none/adjacent,NA
390,8,y,1830,y,TRUE,3,10.3,3,1,44,44,0,adjacent,none,1_44,adjacent/none,dependency
390,9,t,1127,t,TRUE,3,10.3,8,1,45,45,0,none,none,1_45,none/none,none
391,1,h,1017,h,TRUE,3,10.3,12,2,1,46,0,none,none,2_1,none/none,none
391,2,b,1045,b,TRUE,3,10.3,2,2,2,47,0,none,none,2_2,none/none,none
391,3,r,1615,r,TRUE,3,10.3,10,2,3,48,0,none,adjacent,2_3,none/adjacent,NA
391,4,y,1285,y,TRUE,3,10.3,3,2,4,49,0,adjacent,none,2_4,adjacent/none,dependency
391,5,f,4576,f,TRUE,3,10.3,4,2,5,50,0,none,none,2_5,none/none,none
391,6,n,1675,n,TRUE,3,10.3,11,2,6,51,0,none,nonadjacent,2_6,none/nonadjacent,NA
391,8,v,1320,v,TRUE,3,10.3,7,2,8,53,0,nonadjacent,none,2_8,nonadjacent/none,dependency
391,9,t,962,t,TRUE,3,10.3,8,2,9,54,0,none,none,2_9,none/none,none
392,1,b,875,b,TRUE,3,10.3,2,2,10,55,0,none,none,2_10,none/none,none
392,2,f,1144,f,TRUE,3,10.3,4,2,11,56,0,none,none,2_11,none/none,none
392,3,r,983,r,TRUE,3,10.3,10,2,12,57,0,none,adjacent,2_12,none/adjacent,NA
392,4,y,1782,y,TRUE,3,10.3,3,2,13,58,0,adjacent,none,2_13,adjacent/none,dependency
392,6,n,1259,n,TRUE,3,10.3,11,2,15,60,0,none,nonadjacent,2_15,none/nonadjacent,NA
392,7,t,1091,t,TRUE,3,10.3,8,2,16,61,1,none,none,2_16,none/none,none
392,8,v,1034,v,TRUE,3,10.3,7,2,17,62,0,nonadjacent,none,2_17,nonadjacent/none,dependency
392,9,h,1000,h,TRUE,3,10.3,12,2,18,63,0,none,none,2_18,none/none,none
393,1,t,1142,t,TRUE,3,10.3,8,2,19,64,0,none,none,2_19,none/none,none
393,2,h,1149,h,TRUE,3,10.3,12,2,20,65,0,none,none,2_20,none/none,none
393,3,r,2839,r,TRUE,3,10.3,10,2,21,66,0,none,adjacent,2_21,none/adjacent,NA
393,4,y,1494,y,TRUE,3,10.3,3,2,22,67,0,adjacent,none,2_22,adjacent/none,dependency
393,5,b,1115,b,TRUE,3,10.3,2,2,23,68,0,none,none,2_23,none/none,none
393,6,n,2533,n,TRUE,3,10.3,11,2,24,69,0,none,nonadjacent,2_24,none/nonadjacent,NA
393,7,f,1384,f,TRUE,3,10.3,4,2,25,70,1,none,none,2_25,none/none,none
393,8,v,1326,v,TRUE,3,10.3,7,2,26,71,0,nonadjacent,none,2_26,nonadjacent/none,dependency
394,1,f,919,f,TRUE,3,10.3,4,2,28,73,0,none,none,2_28,none/none,none
394,3,r,1288,r,TRUE,3,10.3,10,2,30,75,0,none,adjacent,2_30,none/adjacent,NA
394,4,y,1542,y,TRUE,3,10.3,3,2,31,76,0,adjacent,none,2_31,adjacent/none,dependency
394,5,t,1105,t,TRUE,3,10.3,8,2,32,77,0,none,none,2_32,none/none,none
394,6,n,1890,n,TRUE,3,10.3,11,2,33,78,0,none,nonadjacent,2_33,none/nonadjacent,NA
394,7,h,1013,h,TRUE,3,10.3,12,2,34,79,1,none,none,2_34,none/none,none
394,8,v,1143,v,TRUE,3,10.3,7,2,35,80,0,nonadjacent,none,2_35,nonadjacent/none,dependency
394,9,b,1085,b,TRUE,3,10.3,2,2,36,81,0,none,none,2_36,none/none,none
395,2,t,917,t,TRUE,3,10.3,8,2,38,83,0,none,none,2_38,none/none,none
395,3,r,1395,r,TRUE,3,10.3,10,2,39,84,0,none,adjacent,2_39,none/adjacent,NA
395,4,y,1776,v,FALSE,3,10.3,3,2,40,85,0,adjacent,none,2_40,adjacent/none,dependency
395,5,h,478,y,FALSE,3,10.3,12,2,41,86,0,none,none,2_41,none/none,none
395,6,n,1330,n,TRUE,3,10.3,11,2,42,87,0,none,nonadjacent,2_42,none/nonadjacent,NA
395,7,b,1116,b,TRUE,3,10.3,2,2,43,88,1,none,none,2_43,none/none,none
395,8,v,1112,v,TRUE,3,10.3,7,2,44,89,0,nonadjacent,none,2_44,nonadjacent/none,dependency
395,9,f,2018,f,TRUE,3,10.3,4,2,45,90,0,none,none,2_45,none/none,none
396,1,f,1052,f,TRUE,3,10.3,4,3,1,91,0,none,none,3_1,none/none,none
396,2,n,1980,n,TRUE,3,10.3,11,3,2,92,0,none,nonadjacent,3_2,none/nonadjacent,NA
396,4,v,1047,v,TRUE,3,10.3,7,3,4,94,0,nonadjacent,none,3_4,nonadjacent/none,dependency
396,5,t,961,t,TRUE,3,10.3,8,3,5,95,0,none,none,3_5,none/none,none
396,6,h,1101,h,TRUE,3,10.3,12,3,6,96,0,none,none,3_6,none/none,none
396,7,r,933,r,TRUE,3,10.3,10,3,7,97,0,none,adjacent,3_7,none/adjacent,NA
396,8,y,1621,y,TRUE,3,10.3,3,3,8,98,0,adjacent,none,3_8,adjacent/none,dependency
396,9,b,988,b,TRUE,3,10.3,2,3,9,99,0,none,none,3_9,none/none,none
397,1,b,1002,b,TRUE,3,10.3,2,3,10,100,0,none,none,3_10,none/none,none
397,2,n,1755,n,TRUE,3,10.3,11,3,11,101,0,none,nonadjacent,3_11,none/nonadjacent,NA
397,3,f,1095,f,TRUE,3,10.3,4,3,12,102,1,none,none,3_12,none/none,none
397,4,v,1111,v,TRUE,3,10.3,7,3,13,103,0,nonadjacent,none,3_13,nonadjacent/none,dependency
397,6,t,1002,t,TRUE,3,10.3,8,3,15,105,0,none,none,3_15,none/none,none
397,7,r,1077,r,TRUE,3,10.3,10,3,16,106,0,none,adjacent,3_16,none/adjacent,NA
397,8,y,1272,y,TRUE,3,10.3,3,3,17,107,0,adjacent,none,3_17,adjacent/none,dependency
397,9,h,1061,h,TRUE,3,10.3,12,3,18,108,0,none,none,3_18,none/none,none
398,1,t,3676,t,TRUE,3,10.3,8,3,19,109,0,none,none,3_19,none/none,none
398,2,n,1244,n,TRUE,3,10.3,11,3,20,110,0,none,nonadjacent,3_20,none/nonadjacent,NA
398,3,h,922,h,TRUE,3,10.3,12,3,21,111,1,none,none,3_21,none/none,none
398,4,v,1024,v,TRUE,3,10.3,7,3,22,112,0,nonadjacent,none,3_22,nonadjacent/none,dependency
398,5,b,949,b,TRUE,3,10.3,2,3,23,113,0,none,none,3_23,none/none,none
398,6,f,1047,f,TRUE,3,10.3,4,3,24,114,0,none,none,3_24,none/none,none
398,7,r,1063,r,TRUE,3,10.3,10,3,25,115,0,none,adjacent,3_25,none/adjacent,NA
398,8,y,1248,y,TRUE,3,10.3,3,3,26,116,0,adjacent,none,3_26,adjacent/none,dependency
399,1,h,885,h,TRUE,3,10.3,12,3,28,118,0,none,none,3_28,none/none,none
399,2,n,1644,n,TRUE,3,10.3,11,3,29,119,0,none,nonadjacent,3_29,none/nonadjacent,NA
399,3,b,945,b,TRUE,3,10.3,2,3,30,120,1,none,none,3_30,none/none,none
399,4,v,953,v,TRUE,3,10.3,7,3,31,121,0,nonadjacent,none,3_31,nonadjacent/none,dependency
399,5,f,1292,r,FALSE,3,10.3,4,3,32,122,0,none,none,3_32,none/none,none
399,7,r,1098,r,TRUE,3,10.3,10,3,34,124,0,none,adjacent,3_34,none/adjacent,NA
399,8,y,1149,y,TRUE,3,10.3,3,3,35,125,0,adjacent,none,3_35,adjacent/none,dependency
399,9,t,964,t,TRUE,3,10.3,8,3,36,126,0,none,none,3_36,none/none,none
400,2,n,1405,n,TRUE,3,10.3,11,3,38,128,0,none,nonadjacent,3_38,none/nonadjacent,NA
400,3,t,1012,t,TRUE,3,10.3,8,3,39,129,1,none,none,3_39,none/none,none
400,4,v,967,v,TRUE,3,10.3,7,3,40,130,0,nonadjacent,none,3_40,nonadjacent/none,dependency
400,5,h,1132,h,TRUE,3,10.3,12,3,41,131,0,none,none,3_41,none/none,none
400,6,b,1136,b,TRUE,3,10.3,2,3,42,132,0,none,none,3_42,none/none,none
400,7,r,1120,r,TRUE,3,10.3,10,3,43,133,0,none,adjacent,3_43,none/adjacent,NA
400,8,y,1204,y,TRUE,3,10.3,3,3,44,134,0,adjacent,none,3_44,adjacent/none,dependency
400,9,f,1196,f,TRUE,3,10.3,4,3,45,135,0,none,none,3_45,none/none,none
401,1,b,887,b,TRUE,3,10.3,2,4,1,136,0,none,none,4_1,none/none,none
401,2,h,1032,h,TRUE,3,10.3,12,4,2,137,0,none,none,4_2,none/none,none
401,3,r,1190,r,TRUE,3,10.3,10,4,3,138,0,none,adjacent,4_3,none/adjacent,NA
401,4,y,1180,y,TRUE,3,10.3,3,4,4,139,0,adjacent,none,4_4,adjacent/none,dependency
401,6,n,904,n,TRUE,3,10.3,11,4,6,141,0,none,nonadjacent,4_6,none/nonadjacent,NA
401,7,t,916,t,TRUE,3,10.3,8,4,7,142,1,none,none,4_7,none/none,none
401,8,v,904,v,TRUE,3,10.3,7,4,8,143,0,nonadjacent,none,4_8,nonadjacent/none,dependency
401,9,f,963,f,TRUE,3,10.3,4,4,9,144,0,none,none,4_9,none/none,none
402,2,f,1045,f,TRUE,3,10.3,4,4,11,146,0,none,none,4_11,none/none,none
402,3,r,958,r,TRUE,3,10.3,10,4,12,147,0,none,adjacent,4_12,none/adjacent,NA
402,4,y,919,y,TRUE,3,10.3,3,4,13,148,0,adjacent,none,4_13,adjacent/none,dependency
402,5,h,1205,h,TRUE,3,10.3,12,4,14,149,0,none,none,4_14,none/none,none
402,6,n,1078,n,TRUE,3,10.3,11,4,15,150,0,none,nonadjacent,4_15,none/nonadjacent,NA
402,7,b,949,g,FALSE,3,10.3,2,4,16,151,1,none,none,4_16,none/none,none
402,8,v,1422,v,TRUE,3,10.3,7,4,17,152,0,nonadjacent,none,4_17,nonadjacent/none,dependency
402,9,t,959,t,TRUE,3,10.3,8,4,18,153,0,none,none,4_18,none/none,none
403,1,f,3447,f,TRUE,3,10.3,4,4,19,154,0,none,none,4_19,none/none,none
403,2,b,1052,b,TRUE,3,10.3,2,4,20,155,0,none,none,4_20,none/none,none
403,3,r,1383,r,TRUE,3,10.3,10,4,21,156,0,none,adjacent,4_21,none/adjacent,NA
403,4,y,1104,y,TRUE,3,10.3,3,4,22,157,0,adjacent,none,4_22,adjacent/none,dependency
403,5,t,1114,t,TRUE,3,10.3,8,4,23,158,0,none,none,4_23,none/none,none
403,6,n,1020,n,TRUE,3,10.3,11,4,24,159,0,none,nonadjacent,4_24,none/nonadjacent,NA
403,7,h,1018,h,TRUE,3,10.3,12,4,25,160,1,none,none,4_25,none/none,none
403,8,v,1334,v,TRUE,3,10.3,7,4,26,161,0,nonadjacent,none,4_26,nonadjacent/none,dependency
404,1,t,837,t,TRUE,3,10.3,8,4,28,163,0,none,none,4_28,none/none,none
404,3,r,970,r,TRUE,3,10.3,10,4,30,165,0,none,adjacent,4_30,none/adjacent,NA
404,4,y,951,y,TRUE,3,10.3,3,4,31,166,0,adjacent,none,4_31,adjacent/none,dependency
404,5,b,976,b,TRUE,3,10.3,2,4,32,167,0,none,none,4_32,none/none,none
404,6,n,1022,n,TRUE,3,10.3,11,4,33,168,0,none,nonadjacent,4_33,none/nonadjacent,NA
404,7,f,1116,f,TRUE,3,10.3,4,4,34,169,1,none,none,4_34,none/none,none
404,8,v,1022,v,TRUE,3,10.3,7,4,35,170,0,nonadjacent,none,4_35,nonadjacent/none,dependency
404,9,h,1067,y,FALSE,3,10.3,12,4,36,171,0,none,none,4_36,none/none,none
405,1,h,861,h,TRUE,3,10.3,12,4,37,172,0,none,none,4_37,none/none,none
405,2,t,999,t,TRUE,3,10.3,8,4,38,173,0,none,none,4_38,none/none,none
405,3,r,1290,r,TRUE,3,10.3,10,4,39,174,0,none,adjacent,4_39,none/adjacent,NA
405,4,y,1421,y,TRUE,3,10.3,3,4,40,175,0,adjacent,none,4_40,adjacent/none,dependency
405,5,f,1257,f,TRUE,3,10.3,4,4,41,176,0,none,none,4_41,none/none,none
405,6,n,1079,n,TRUE,3,10.3,11,4,42,177,0,none,nonadjacent,4_42,none/nonadjacent,NA
405,8,v,964,v,TRUE,3,10.3,7,4,44,179,0,nonadjacent,none,4_44,nonadjacent/none,dependency
405,9,b,918,b,TRUE,3,10.3,2,4,45,180,0,none,none,4_45,none/none,none
406,2,n,1027,n,TRUE,3,10.3,11,5,2,182,0,none,nonadjacent,5_2,none/nonadjacent,NA
406,3,f,816,f,TRUE,3,10.3,4,5,3,183,1,none,none,5_3,none/none,none
406,4,v,1103,v,TRUE,3,10.3,7,5,4,184,0,nonadjacent,none,5_4,nonadjacent/none,dependency
406,5,h,927,h,TRUE,3,10.3,12,5,5,185,0,none,none,5_5,none/none,none
406,6,b,927,b,TRUE,3,10.3,2,5,6,186,0,none,none,5_6,none/none,none
406,7,r,853,r,TRUE,3,10.3,10,5,7,187,0,none,adjacent,5_7,none/adjacent,NA
406,8,y,896,y,TRUE,3,10.3,3,5,8,188,0,adjacent,none,5_8,adjacent/none,dependency
406,9,t,752,t,TRUE,3,10.3,8,5,9,189,0,none,none,5_9,none/none,none
407,1,t,771,t,TRUE,3,10.3,8,5,10,190,0,none,none,5_10,none/none,none
407,2,n,920,n,TRUE,3,10.3,11,5,11,191,0,none,nonadjacent,5_11,none/nonadjacent,NA
407,4,v,735,v,TRUE,3,10.3,7,5,13,193,0,nonadjacent,none,5_13,nonadjacent/none,dependency
407,5,b,1039,b,TRUE,3,10.3,2,5,14,194,0,none,none,5_14,none/none,none
407,6,f,896,f,TRUE,3,10.3,4,5,15,195,0,none,none,5_15,none/none,none
407,7,r,1072,r,TRUE,3,10.3,10,5,16,196,0,none,adjacent,5_16,none/adjacent,NA
407,8,y,918,y,TRUE,3,10.3,3,5,17,197,0,adjacent,none,5_17,adjacent/none,dependency
407,9,h,955,h,TRUE,3,10.3,12,5,18,198,0,none,none,5_18,none/none,none
408,1,f,787,f,TRUE,3,10.3,4,5,19,199,0,none,none,5_19,none/none,none
408,2,n,979,n,TRUE,3,10.3,11,5,20,200,0,none,nonadjacent,5_20,none/nonadjacent,NA
408,3,b,755,b,TRUE,3,10.3,2,5,21,201,1,none,none,5_21,none/none,none
408,4,v,1750,v,TRUE,3,10.3,7,5,22,202,0,nonadjacent,none,5_22,nonadjacent/none,dependency
408,5,t,833,t,TRUE,3,10.3,8,5,23,203,0,none,none,5_23,none/none,none
408,6,h,1051,h,TRUE,3,10.3,12,5,24,204,0,none,none,5_24,none/none,none
408,7,r,844,r,TRUE,3,10.3,10,5,25,205,0,none,adjacent,5_25,none/adjacent,NA
408,8,y,1070,y,TRUE,3,10.3,3,5,26,206,0,adjacent,none,5_26,adjacent/none,dependency
409,1,b,1156,b,TRUE,3,10.3,2,5,28,208,0,none,none,5_28,none/none,none
409,2,n,1039,n,TRUE,3,10.3,11,5,29,209,0,none,nonadjacent,5_29,none/nonadjacent,NA
409,3,h,1581,h,TRUE,3,10.3,12,5,30,210,1,none,none,5_30,none/none,none
409,4,v,960,v,TRUE,3,10.3,7,5,31,211,0,nonadjacent,none,5_31,nonadjacent/none,dependency
409,6,t,1026,t,TRUE,3,10.3,8,5,33,213,0,none,none,5_33,none/none,none
409,7,r,1096,r,TRUE,3,10.3,10,5,34,214,0,none,adjacent,5_34,none/adjacent,NA
409,8,y,1248,y,TRUE,3,10.3,3,5,35,215,0,adjacent,none,5_35,adjacent/none,dependency
409,9,f,918,f,TRUE,3,10.3,4,5,36,216,0,none,none,5_36,none/none,none
410,1,h,802,h,TRUE,3,10.3,12,5,37,217,0,none,none,5_37,none/none,none
410,2,n,949,n,TRUE,3,10.3,11,5,38,218,0,none,nonadjacent,5_38,none/nonadjacent,NA
410,3,t,991,t,TRUE,3,10.3,8,5,39,219,1,none,none,5_39,none/none,none
410,4,v,1080,v,TRUE,3,10.3,7,5,40,220,0,nonadjacent,none,5_40,nonadjacent/none,dependency
410,5,f,1845,f,TRUE,3,10.3,4,5,41,221,0,none,none,5_41,none/none,none
410,7,r,1048,r,TRUE,3,10.3,10,5,43,223,0,none,adjacent,5_43,none/adjacent,NA
410,8,y,930,y,TRUE,3,10.3,3,5,44,224,0,adjacent,none,5_44,adjacent/none,dependency
410,9,b,1242,b,TRUE,3,10.3,2,5,45,225,0,none,none,5_45,none/none,none
411,1,b,784,b,TRUE,3,10.3,2,6,1,226,0,none,none,6_1,none/none,none
411,2,t,975,t,TRUE,3,10.3,8,6,2,227,0,none,none,6_2,none/none,none
411,3,r,1087,r,TRUE,3,10.3,10,6,3,228,0,none,adjacent,6_3,none/adjacent,NA
411,4,y,1013,y,TRUE,3,10.3,3,6,4,229,0,adjacent,none,6_4,adjacent/none,dependency
411,5,f,1072,f,TRUE,3,10.3,4,6,5,230,0,none,none,6_5,none/none,none
411,6,n,1004,n,TRUE,3,10.3,11,6,6,231,0,none,nonadjacent,6_6,none/nonadjacent,NA
411,8,v,862,v,TRUE,3,10.3,7,6,8,233,0,nonadjacent,none,6_8,nonadjacent/none,dependency
411,9,h,913,h,TRUE,3,10.3,12,6,9,234,0,none,none,6_9,none/none,none
412,1,f,796,f,TRUE,3,10.3,4,6,10,235,0,none,none,6_10,none/none,none
412,2,h,1350,h,TRUE,3,10.3,12,6,11,236,0,none,none,6_11,none/none,none
412,3,r,830,r,TRUE,3,10.3,10,6,12,237,0,none,adjacent,6_12,none/adjacent,NA
412,4,y,884,y,TRUE,3,10.3,3,6,13,238,0,adjacent,none,6_13,adjacent/none,dependency
412,6,n,997,n,TRUE,3,10.3,11,6,15,240,0,none,nonadjacent,6_15,none/nonadjacent,NA
412,7,t,942,t,TRUE,3,10.3,8,6,16,241,1,none,none,6_16,none/none,none
412,8,v,912,v,TRUE,3,10.3,7,6,17,242,0,nonadjacent,none,6_17,nonadjacent/none,dependency
412,9,b,931,b,TRUE,3,10.3,2,6,18,243,0,none,none,6_18,none/none,none
413,2,b,928,b,TRUE,3,10.3,2,6,20,245,0,none,none,6_20,none/none,none
413,3,r,902,r,TRUE,3,10.3,10,6,21,246,0,none,adjacent,6_21,none/adjacent,NA
413,4,y,951,y,TRUE,3,10.3,3,6,22,247,0,adjacent,none,6_22,adjacent/none,dependency
413,5,t,881,t,TRUE,3,10.3,8,6,23,248,0,none,none,6_23,none/none,none
413,6,n,1329,n,TRUE,3,10.3,11,6,24,249,0,none,nonadjacent,6_24,none/nonadjacent,NA
413,7,h,973,h,TRUE,3,10.3,12,6,25,250,1,none,none,6_25,none/none,none
413,8,v,930,v,TRUE,3,10.3,7,6,26,251,0,nonadjacent,none,6_26,nonadjacent/none,dependency
413,9,f,929,f,TRUE,3,10.3,4,6,27,252,0,none,none,6_27,none/none,none
414,1,h,875,h,TRUE,3,10.3,12,6,28,253,0,none,none,6_28,none/none,none
414,3,r,815,r,TRUE,3,10.3,10,6,30,255,0,none,adjacent,6_30,none/adjacent,NA
414,4,y,972,y,TRUE,3,10.3,3,6,31,256,0,adjacent,none,6_31,adjacent/none,dependency
414,5,b,928,b,TRUE,3,10.3,2,6,32,257,0,none,none,6_32,none/none,none
414,6,n,1239,n,TRUE,3,10.3,11,6,33,258,0,none,nonadjacent,6_33,none/nonadjacent,NA
414,7,f,950,f,TRUE,3,10.3,4,6,34,259,1,none,none,6_34,none/none,none
414,8,v,982,v,TRUE,3,10.3,7,6,35,260,0,nonadjacent,none,6_35,nonadjacent/none,dependency
414,9,t,901,t,TRUE,3,10.3,8,6,36,261,0,none,none,6_36,none/none,none
415,1,t,774,t,TRUE,3,10.3,8,6,37,262,0,none,none,6_37,none/none,none
415,2,f,1116,f,TRUE,3,10.3,4,6,38,263,0,none,none,6_38,none/none,none
415,3,r,1137,r,TRUE,3,10.3,10,6,39,264,0,none,adjacent,6_39,none/adjacent,NA
415,4,y,1029,y,TRUE,3,10.3,3,6,40,265,0,adjacent,none,6_40,adjacent/none,dependency
415,5,h,1069,h,TRUE,3,10.3,12,6,41,266,0,none,none,6_41,none/none,none
415,6,n,1039,n,TRUE,3,10.3,11,6,42,267,0,none,nonadjacent,6_42,none/nonadjacent,NA
415,7,b,904,g,FALSE,3,10.3,2,6,43,268,1,none,none,6_43,none/none,none
415,8,v,1249,v,TRUE,3,10.3,7,6,44,269,0,nonadjacent,none,6_44,nonadjacent/none,dependency
416,1,f,782,f,TRUE,3,10.3,4,7,1,271,0,none,none,7_1,none/none,none
416,3,b,1596,b,TRUE,3,10.3,2,7,3,273,0,none,none,7_3,none/none,none
416,4,h,937,h,TRUE,3,10.3,12,7,4,274,0,none,none,7_4,none/none,none
416,5,t,863,t,TRUE,3,10.3,8,7,5,275,0,none,none,7_5,none/none,none
416,6,y,949,y,TRUE,3,10.3,3,7,6,276,0,none,none,7_6,none/none,none
416,7,v,1262,v,TRUE,3,10.3,7,7,7,277,0,none,none,7_7,none/none,none
416,8,n,1183,n,TRUE,3,10.3,11,7,8,278,0,none,nonadjacent,7_8,none/nonadjacent,NA
416,9,r,1125,r,TRUE,3,10.3,10,7,9,279,1,none,adjacent,7_9,none/adjacent,NA
417,1,v,920,v,TRUE,3,10.3,7,7,10,280,0,both,none,7_10,both/none,dependency
417,2,h,1204,y,FALSE,3,10.3,12,7,11,281,0,none,none,7_11,none/none,none
417,3,t,1198,t,TRUE,3,10.3,8,7,12,282,0,none,none,7_12,none/none,none
417,4,b,940,b,TRUE,3,10.3,2,7,13,283,0,none,none,7_13,none/none,none
417,5,r,910,r,TRUE,3,10.3,10,7,14,284,0,none,adjacent,7_14,none/adjacent,NA
417,6,n,1067,n,TRUE,3,10.3,11,7,15,285,0,adjacent,nonadjacent,7_15,adjacent/nonadjacent,dependency
417,8,f,940,f,TRUE,3,10.3,4,7,17,287,0,nonadjacent,none,7_17,nonadjacent/none,dependency
417,9,y,1036,y,TRUE,3,10.3,3,7,18,288,0,none,none,7_18,none/none,none
418,1,n,913,n,TRUE,3,10.3,11,7,19,289,0,none,nonadjacent,7_19,none/nonadjacent,NA
418,2,b,1125,b,TRUE,3,10.3,2,7,20,290,1,none,none,7_20,none/none,none
418,3,f,1000,f,TRUE,3,10.3,4,7,21,291,0,nonadjacent,none,7_21,nonadjacent/none,dependency
418,4,y,932,y,TRUE,3,10.3,3,7,22,292,0,none,none,7_22,none/none,none
418,6,v,1026,v,TRUE,3,10.3,7,7,24,294,0,none,none,7_24,none/none,none
418,7,r,911,r,TRUE,3,10.3,10,7,25,295,0,none,adjacent,7_25,none/adjacent,NA
418,8,h,955,h,TRUE,3,10.3,12,7,26,296,0,adjacent,none,7_26,adjacent/none,dependency
418,9,t,1045,t,TRUE,3,10.3,8,7,27,297,0,none,none,7_27,none/none,none
419,1,r,1013,r,TRUE,3,10.3,10,7,28,298,0,none,adjacent,7_28,none/adjacent,NA
419,2,t,1816,r,FALSE,3,10.3,8,7,29,299,0,adjacent,none,7_29,adjacent/none,dependency
419,3,y,1517,y,TRUE,3,10.3,3,7,30,300,0,none,none,7_30,none/none,none
419,4,v,1269,v,TRUE,3,10.3,7,7,31,301,0,none,none,7_31,none/none,none
419,5,n,1024,n,TRUE,3,10.3,11,7,32,302,0,none,nonadjacent,7_32,none/nonadjacent,NA
419,7,f,1193,f,TRUE,3,10.3,4,7,34,304,0,nonadjacent,none,7_34,nonadjacent/none,dependency
419,8,b,1464,b,TRUE,3,10.3,2,7,35,305,0,none,none,7_35,none/none,none
419,9,h,1160,h,TRUE,3,10.3,12,7,36,306,0,none,none,7_36,none/none,none
420,1,b,1438,b,TRUE,3,10.3,2,7,37,307,0,none,none,7_37,none/none,none
420,2,v,971,v,TRUE,3,10.3,7,7,38,308,0,none,none,7_38,none/none,none
420,3,h,896,h,TRUE,3,10.3,12,7,39,309,0,none,none,7_39,none/none,none
420,4,f,905,f,TRUE,3,10.3,4,7,40,310,0,none,none,7_40,none/none,none
420,5,y,869,y,TRUE,3,10.3,3,7,41,311,0,none,none,7_41,none/none,none
420,6,t,995,t,TRUE,3,10.3,8,7,42,312,0,none,none,7_42,none/none,none
420,7,n,1027,n,TRUE,3,10.3,11,7,43,313,0,none,nonadjacent,7_43,none/nonadjacent,NA
420,8,r,1136,r,TRUE,3,10.3,10,7,44,314,1,none,adjacent,7_44,none/adjacent,NA
1436,2,t,1990,t,TRUE,4,10.7,8,1,2,2,0,none,none,1_2,none/none,none
1436,3,r,3277,r,TRUE,4,10.7,10,1,3,3,0,none,adjacent,1_3,none/adjacent,NA
1436,4,v,1682,v,TRUE,4,10.7,7,1,4,4,0,adjacent,none,1_4,adjacent/none,dependency
1436,5,h,2400,f,FALSE,4,10.7,12,1,5,5,0,none,none,1_5,none/none,none
1436,6,n,3544,n,TRUE,4,10.7,11,1,6,6,0,none,nonadjacent,1_6,none/nonadjacent,NA
1436,7,b,1829,b,TRUE,4,10.7,2,1,7,7,1,none,none,1_7,none/none,none
1436,8,y,1988,y,TRUE,4,10.7,3,1,8,8,0,nonadjacent,none,1_8,nonadjacent/none,dependency
1436,9,f,2412,f,TRUE,4,10.7,4,1,9,9,0,none,none,1_9,none/none,none
1437,1,b,1543,b,TRUE,4,10.7,2,1,10,10,0,none,none,1_10,none/none,none
1437,2,f,3804,f,TRUE,4,10.7,4,1,11,11,0,none,none,1_11,none/none,none
1437,3,r,2023,r,TRUE,4,10.7,10,1,12,12,0,none,adjacent,1_12,none/adjacent,NA
1437,4,v,3956,v,TRUE,4,10.7,7,1,13,13,0,adjacent,none,1_13,adjacent/none,dependency
1437,6,n,5941,n,TRUE,4,10.7,11,1,15,15,0,none,nonadjacent,1_15,none/nonadjacent,NA
1437,7,t,2278,t,TRUE,4,10.7,8,1,16,16,1,none,none,1_16,none/none,none
1437,8,y,2408,y,TRUE,4,10.7,3,1,17,17,0,nonadjacent,none,1_17,nonadjacent/none,dependency
1437,9,h,1823,f,FALSE,4,10.7,12,1,18,18,0,none,none,1_18,none/none,none
1438,1,h,1036,f,FALSE,4,10.7,12,1,19,19,0,none,none,1_19,none/none,none
1438,2,b,1388,b,TRUE,4,10.7,2,1,20,20,0,none,none,1_20,none/none,none
1438,3,r,2624,r,TRUE,4,10.7,10,1,21,21,0,none,adjacent,1_21,none/adjacent,NA
1438,4,v,1423,v,TRUE,4,10.7,7,1,22,22,0,adjacent,none,1_22,adjacent/none,dependency
1438,5,f,2897,f,TRUE,4,10.7,4,1,23,23,0,none,none,1_23,none/none,none
1438,6,n,2865,n,TRUE,4,10.7,11,1,24,24,0,none,nonadjacent,1_24,none/nonadjacent,NA
1438,8,y,2917,y,TRUE,4,10.7,3,1,26,26,0,nonadjacent,none,1_26,nonadjacent/none,dependency
1438,9,t,2896,t,TRUE,4,10.7,8,1,27,27,0,none,none,1_27,none/none,none
1439,1,t,1171,t,TRUE,4,10.7,8,1,28,28,0,none,none,1_28,none/none,none
1439,2,h,2718,h,TRUE,4,10.7,12,1,29,29,0,none,none,1_29,none/none,none
1439,3,r,1964,r,TRUE,4,10.7,10,1,30,30,0,none,adjacent,1_30,none/adjacent,NA
1439,4,v,2200,v,TRUE,4,10.7,7,1,31,31,0,adjacent,none,1_31,adjacent/none,dependency
1439,5,b,2983,b,TRUE,4,10.7,2,1,32,32,0,none,none,1_32,none/none,none
1439,6,n,1848,n,TRUE,4,10.7,11,1,33,33,0,none,nonadjacent,1_33,none/nonadjacent,NA
1439,7,f,2400,f,TRUE,4,10.7,4,1,34,34,1,none,none,1_34,none/none,none
1439,8,y,1462,y,TRUE,4,10.7,3,1,35,35,0,nonadjacent,none,1_35,nonadjacent/none,dependency
1440,1,f,1326,f,TRUE,4,10.7,4,1,37,37,0,none,none,1_37,none/none,none
1440,3,r,1519,r,TRUE,4,10.7,10,1,39,39,0,none,adjacent,1_39,none/adjacent,NA
1440,4,v,1526,v,TRUE,4,10.7,7,1,40,40,0,adjacent,none,1_40,adjacent/none,dependency
1440,5,t,1872,t,TRUE,4,10.7,8,1,41,41,0,none,none,1_41,none/none,none
1440,6,n,1734,n,TRUE,4,10.7,11,1,42,42,0,none,nonadjacent,1_42,none/nonadjacent,NA
1440,7,h,4424,h,TRUE,4,10.7,12,1,43,43,1,none,none,1_43,none/none,none
1440,8,y,1496,y,TRUE,4,10.7,3,1,44,44,0,nonadjacent,none,1_44,nonadjacent/none,dependency
1440,9,b,1925,b,TRUE,4,10.7,2,1,45,45,0,none,none,1_45,none/none,none
1441,1,t,2476,t,TRUE,4,10.7,8,2,1,46,0,none,none,2_1,none/none,none
1441,2,n,2022,n,TRUE,4,10.7,11,2,2,47,0,none,nonadjacent,2_2,none/nonadjacent,NA
1441,3,b,1745,b,TRUE,4,10.7,2,2,3,48,1,none,none,2_3,none/none,none
1441,4,y,1629,y,TRUE,4,10.7,3,2,4,49,0,nonadjacent,none,2_4,nonadjacent/none,dependency
1441,5,f,1893,f,TRUE,4,10.7,4,2,5,50,0,none,none,2_5,none/none,none
1441,7,r,2967,r,TRUE,4,10.7,10,2,7,52,0,none,adjacent,2_7,none/adjacent,NA
1441,8,v,1346,v,TRUE,4,10.7,7,2,8,53,0,adjacent,none,2_8,adjacent/none,dependency
1441,9,h,1472,h,TRUE,4,10.7,12,2,9,54,0,none,none,2_9,none/none,none
1442,2,n,1666,n,TRUE,4,10.7,11,2,11,56,0,none,nonadjacent,2_11,none/nonadjacent,NA
1442,3,h,1320,h,TRUE,4,10.7,12,2,12,57,1,none,none,2_12,none/none,none
1442,4,y,1379,y,TRUE,4,10.7,3,2,13,58,0,nonadjacent,none,2_13,nonadjacent/none,dependency
1442,5,b,1670,b,TRUE,4,10.7,2,2,14,59,0,none,none,2_14,none/none,none
1442,6,f,3429,f,TRUE,4,10.7,4,2,15,60,0,none,none,2_15,none/none,none
1442,7,r,2663,r,TRUE,4,10.7,10,2,16,61,0,none,adjacent,2_16,none/adjacent,NA
1442,8,v,2149,v,TRUE,4,10.7,7,2,17,62,0,adjacent,none,2_17,adjacent/none,dependency
1442,9,t,2597,t,TRUE,4,10.7,8,2,18,63,0,none,none,2_18,none/none,none
1443,1,f,2624,f,TRUE,4,10.7,4,2,19,64,0,none,none,2_19,none/none,none
1443,2,n,2352,n,TRUE,4,10.7,11,2,20,65,0,none,nonadjacent,2_20,none/nonadjacent,NA
1443,3,t,3206,t,TRUE,4,10.7,8,2,21,66,1,none,none,2_21,none/none,none
1443,4,y,1192,y,TRUE,4,10.7,3,2,22,67,0,nonadjacent,none,2_22,nonadjacent/none,dependency
1443,5,h,2254,f,FALSE,4,10.7,12,2,23,68,0,none,none,2_23,none/none,none
1443,6,b,3151,b,TRUE,4,10.7,2,2,24,69,0,none,none,2_24,none/none,none
1443,7,r,1614,r,TRUE,4,10.7,10,2,25,70,0,none,adjacent,2_25,none/adjacent,NA
1443,8,v,1350,v,TRUE,4,10.7,7,2,26,71,0,adjacent,none,2_26,adjacent/none,dependency
1444,1,h,1506,h,TRUE,4,10.7,12,2,28,73,0,none,none,2_28,none/none,none
1444,2,n,1294,n,TRUE,4,10.7,11,2,29,74,0,none,nonadjacent,2_29,none/nonadjacent,NA
1444,3,f,4525,f,TRUE,4,10.7,4,2,30,75,1,none,none,2_30,none/none,none
1444,4,y,1223,y,TRUE,4,10.7,3,2,31,76,0,nonadjacent,none,2_31,nonadjacent/none,dependency
1444,6,t,1544,t,TRUE,4,10.7,8,2,33,78,0,none,none,2_33,none/none,none
1444,7,r,1550,r,TRUE,4,10.7,10,2,34,79,0,none,adjacent,2_34,none/adjacent,NA
1444,8,v,1314,v,TRUE,4,10.7,7,2,35,80,0,adjacent,none,2_35,adjacent/none,dependency
1444,9,b,1732,b,TRUE,4,10.7,2,2,36,81,0,none,none,2_36,none/none,none
1445,1,b,1452,b,TRUE,4,10.7,2,2,37,82,0,none,none,2_37,none/none,none
1445,2,n,1691,n,TRUE,4,10.7,11,2,38,83,0,none,nonadjacent,2_38,none/nonadjacent,NA
1445,4,y,1705,y,TRUE,4,10.7,3,2,40,85,0,nonadjacent,none,2_40,nonadjacent/none,dependency
1445,5,t,1892,t,TRUE,4,10.7,8,2,41,86,0,none,none,2_41,none/none,none
1445,6,h,1230,h,TRUE,4,10.7,12,2,42,87,0,none,none,2_42,none/none,none
1445,7,r,3362,r,TRUE,4,10.7,10,2,43,88,0,none,adjacent,2_43,none/adjacent,NA
1445,8,v,1227,v,TRUE,4,10.7,7,2,44,89,0,adjacent,none,2_44,adjacent/none,dependency
1445,9,f,1861,f,TRUE,4,10.7,4,2,45,90,0,none,none,2_45,none/none,none
1446,1,t,7853,t,TRUE,4,10.7,8,3,1,91,0,none,none,3_1,none/none,none
1446,3,r,2366,r,TRUE,4,10.7,10,3,3,93,0,none,adjacent,3_3,none/adjacent,NA
1446,4,v,2079,v,TRUE,4,10.7,7,3,4,94,0,adjacent,none,3_4,adjacent/none,dependency
1446,5,b,1708,n,FALSE,4,10.7,2,3,5,95,0,none,none,3_5,none/none,none
1446,6,n,6618,n,TRUE,4,10.7,11,3,6,96,0,none,nonadjacent,3_6,none/nonadjacent,NA
1446,7,f,1840,f,TRUE,4,10.7,4,3,7,97,1,none,none,3_7,none/none,none
1446,8,y,1441,y,TRUE,4,10.7,3,3,8,98,0,nonadjacent,none,3_8,nonadjacent/none,dependency
1446,9,h,1197,h,TRUE,4,10.7,12,3,9,99,0,none,none,3_9,none/none,none
1447,1,f,1530,f,TRUE,4,10.7,4,3,10,100,0,none,none,3_10,none/none,none
1447,2,b,1405,b,TRUE,4,10.7,2,3,11,101,0,none,none,3_11,none/none,none
1447,3,r,2020,r,TRUE,4,10.7,10,3,12,102,0,none,adjacent,3_12,none/adjacent,NA
1447,4,v,1122,v,TRUE,4,10.7,7,3,13,103,0,adjacent,none,3_13,adjacent/none,dependency
1447,5,t,4158,t,TRUE,4,10.7,8,3,14,104,0,none,none,3_14,none/none,none
1447,6,n,1374,n,TRUE,4,10.7,11,3,15,105,0,none,nonadjacent,3_15,none/nonadjacent,NA
1447,7,h,1520,f,FALSE,4,10.7,12,3,16,106,1,none,none,3_16,none/none,none
1447,8,y,1528,h,FALSE,4,10.7,3,3,17,107,0,nonadjacent,none,3_17,nonadjacent/none,dependency
1448,1,b,2206,b,TRUE,4,10.7,2,3,19,109,0,none,none,3_19,none/none,none
1448,2,h,1078,h,TRUE,4,10.7,12,3,20,110,0,none,none,3_20,none/none,none
1448,3,r,1748,r,TRUE,4,10.7,10,3,21,111,0,none,adjacent,3_21,none/adjacent,NA
1448,4,v,1103,v,TRUE,4,10.7,7,3,22,112,0,adjacent,none,3_22,adjacent/none,dependency
1448,6,n,1281,n,TRUE,4,10.7,11,3,24,114,0,none,nonadjacent,3_24,none/nonadjacent,NA
1448,7,t,1572,t,TRUE,4,10.7,8,3,25,115,1,none,none,3_25,none/none,none
1448,8,y,2229,y,TRUE,4,10.7,3,3,26,116,0,nonadjacent,none,3_26,nonadjacent/none,dependency
1448,9,f,5528,f,TRUE,4,10.7,4,3,27,117,0,none,none,3_27,none/none,none
1449,2,f,1410,f,TRUE,4,10.7,4,3,29,119,0,none,none,3_29,none/none,none
1449,3,r,1121,r,TRUE,4,10.7,10,3,30,120,0,none,adjacent,3_30,none/adjacent,NA
1449,4,v,1014,v,TRUE,4,10.7,7,3,31,121,0,adjacent,none,3_31,adjacent/none,dependency
1449,5,h,1705,h,TRUE,4,10.7,12,3,32,122,0,none,none,3_32,none/none,none
1449,6,n,1054,n,TRUE,4,10.7,11,3,33,123,0,none,nonadjacent,3_33,none/nonadjacent,NA
1449,7,b,1455,b,TRUE,4,10.7,2,3,34,124,1,none,none,3_34,none/none,none
1449,8,y,1358,y,TRUE,4,10.7,3,3,35,125,0,nonadjacent,none,3_35,nonadjacent/none,dependency
1449,9,t,1182,t,TRUE,4,10.7,8,3,36,126,0,none,none,3_36,none/none,none
1450,1,h,2163,f,FALSE,4,10.7,12,3,37,127,0,none,none,3_37,none/none,none
1450,2,t,1398,t,TRUE,4,10.7,8,3,38,128,0,none,none,3_38,none/none,none
1450,3,r,3853,r,TRUE,4,10.7,10,3,39,129,0,none,adjacent,3_39,none/adjacent,NA
1450,4,v,1086,v,TRUE,4,10.7,7,3,40,130,0,adjacent,none,3_40,adjacent/none,dependency
1450,5,f,6070,f,TRUE,4,10.7,4,3,41,131,0,none,none,3_41,none/none,none
1450,6,n,1240,n,TRUE,4,10.7,11,3,42,132,0,none,nonadjacent,3_42,none/nonadjacent,NA
1450,8,y,1489,y,TRUE,4,10.7,3,3,44,134,0,nonadjacent,none,3_44,nonadjacent/none,dependency
1450,9,b,1419,b,TRUE,4,10.7,2,3,45,135,0,none,none,3_45,none/none,none
1451,2,n,1389,n,TRUE,4,10.7,11,4,2,137,0,none,nonadjacent,4_2,none/nonadjacent,NA
1451,3,t,1066,t,TRUE,4,10.7,8,4,3,138,1,none,none,4_3,none/none,none
1451,4,y,1356,y,TRUE,4,10.7,3,4,4,139,0,nonadjacent,none,4_4,nonadjacent/none,dependency
1451,5,h,1316,h,TRUE,4,10.7,12,4,5,140,0,none,none,4_5,none/none,none
1451,6,b,1262,b,TRUE,4,10.7,2,4,6,141,0,none,none,4_6,none/none,none
1451,7,r,3040,r,TRUE,4,10.7,10,4,7,142,0,none,adjacent,4_7,none/adjacent,NA
1451,8,v,1094,v,TRUE,4,10.7,7,4,8,143,0,adjacent,none,4_8,adjacent/none,dependency
1451,9,f,1254,f,TRUE,4,10.7,4,4,9,144,0,none,none,4_9,none/none,none
1452,1,t,1629,t,TRUE,4,10.7,8,4,10,145,0,none,none,4_10,none/none,none
1452,2,n,3190,n,TRUE,4,10.7,11,4,11,146,0,none,nonadjacent,4_11,none/nonadjacent,NA
1452,3,h,2270,h,TRUE,4,10.7,12,4,12,147,1,none,none,4_12,none/none,none
1452,4,y,1110,y,TRUE,4,10.7,3,4,13,148,0,nonadjacent,none,4_13,nonadjacent/none,dependency
1452,5,b,1226,b,TRUE,4,10.7,2,4,14,149,0,none,none,4_14,none/none,none
1452,6,f,1332,f,TRUE,4,10.7,4,4,15,150,0,none,none,4_15,none/none,none
1452,7,r,1184,r,TRUE,4,10.7,10,4,16,151,0,none,adjacent,4_16,none/adjacent,NA
1452,8,v,1246,v,TRUE,4,10.7,7,4,17,152,0,adjacent,none,4_17,adjacent/none,dependency
1453,1,h,1276,h,TRUE,4,10.7,12,4,19,154,0,none,none,4_19,none/none,none
1453,2,n,1408,n,TRUE,4,10.7,11,4,20,155,0,none,nonadjacent,4_20,none/nonadjacent,NA
1453,3,b,2222,b,TRUE,4,10.7,2,4,21,156,1,none,none,4_21,none/none,none
1453,4,y,1346,y,TRUE,4,10.7,3,4,22,157,0,nonadjacent,none,4_22,nonadjacent/none,dependency
1453,5,f,1624,f,TRUE,4,10.7,4,4,23,158,0,none,none,4_23,none/none,none
1453,7,r,1453,r,TRUE,4,10.7,10,4,25,160,0,none,adjacent,4_25,none/adjacent,NA
1453,8,v,1492,v,TRUE,4,10.7,7,4,26,161,0,adjacent,none,4_26,adjacent/none,dependency
1453,9,t,1184,t,TRUE,4,10.7,8,4,27,162,0,none,none,4_27,none/none,none
1454,1,f,2139,f,TRUE,4,10.7,4,4,28,163,0,none,none,4_28,none/none,none
1454,2,n,1599,n,TRUE,4,10.7,11,4,29,164,0,none,nonadjacent,4_29,none/nonadjacent,NA
1454,4,y,1393,y,TRUE,4,10.7,3,4,31,166,0,nonadjacent,none,4_31,nonadjacent/none,dependency
1454,5,t,1325,t,TRUE,4,10.7,8,4,32,167,0,none,none,4_32,none/none,none
1454,6,h,1496,h,TRUE,4,10.7,12,4,33,168,0,none,none,4_33,none/none,none
1454,7,r,3653,r,TRUE,4,10.7,10,4,34,169,0,none,adjacent,4_34,none/adjacent,NA
1454,8,v,1065,v,TRUE,4,10.7,7,4,35,170,0,adjacent,none,4_35,adjacent/none,dependency
1454,9,b,1469,b,TRUE,4,10.7,2,4,36,171,0,none,none,4_36,none/none,none
1455,1,b,1098,b,TRUE,4,10.7,2,4,37,172,0,none,none,4_37,none/none,none
1455,2,n,1538,n,TRUE,4,10.7,11,4,38,173,0,none,nonadjacent,4_38,none/nonadjacent,NA
1455,3,f,1438,f,TRUE,4,10.7,4,4,39,174,1,none,none,4_39,none/none,none
1455,4,y,1305,y,TRUE,4,10.7,3,4,40,175,0,nonadjacent,none,4_40,nonadjacent/none,dependency
1455,6,t,2174,t,TRUE,4,10.7,8,4,42,177,0,none,none,4_42,none/none,none
1455,7,r,1345,r,TRUE,4,10.7,10,4,43,178,0,none,adjacent,4_43,none/adjacent,NA
1455,8,v,1127,v,TRUE,4,10.7,7,4,44,179,0,adjacent,none,4_44,adjacent/none,dependency
1455,9,h,2157,h,TRUE,4,10.7,12,4,45,180,0,none,none,4_45,none/none,none
1456,1,f,1447,f,TRUE,4,10.7,4,5,1,181,0,none,none,5_1,none/none,none
1456,2,h,1293,h,TRUE,4,10.7,12,5,2,182,0,none,none,5_2,none/none,none
1456,3,r,1029,r,TRUE,4,10.7,10,5,3,183,0,none,adjacent,5_3,none/adjacent,NA
1456,4,v,1280,v,TRUE,4,10.7,7,5,4,184,0,adjacent,none,5_4,adjacent/none,dependency
1456,6,n,1213,n,TRUE,4,10.7,11,5,6,186,0,none,nonadjacent,5_6,none/nonadjacent,NA
1456,7,t,982,t,TRUE,4,10.7,8,5,7,187,1,none,none,5_7,none/none,none
1456,8,y,1316,y,TRUE,4,10.7,3,5,8,188,0,nonadjacent,none,5_8,nonadjacent/none,dependency
1456,9,b,990,b,TRUE,4,10.7,2,5,9,189,0,none,none,5_9,none/none,none
1457,1,h,1310,h,TRUE,4,10.7,12,5,10,190,0,none,none,5_10,none/none,none
1457,3,r,1057,r,TRUE,4,10.7,10,5,12,192,0,none,adjacent,5_12,none/adjacent,NA
1457,4,v,1067,v,TRUE,4,10.7,7,5,13,193,0,adjacent,none,5_13,adjacent/none,dependency
1457,5,b,1639,b,TRUE,4,10.7,2,5,14,194,0,none,none,5_14,none/none,none
1457,6,n,1090,n,TRUE,4,10.7,11,5,15,195,0,none,nonadjacent,5_15,none/nonadjacent,NA
1457,7,f,1305,f,TRUE,4,10.7,4,5,16,196,1,none,none,5_16,none/none,none
1457,8,y,1256,y,TRUE,4,10.7,3,5,17,197,0,nonadjacent,none,5_17,nonadjacent/none,dependency
1457,9,t,944,t,TRUE,4,10.7,8,5,18,198,0,none,none,5_18,none/none,none
1458,2,b,1142,b,TRUE,4,10.7,2,5,20,200,0,none,none,5_20,none/none,none
1458,3,r,1324,r,TRUE,4,10.7,10,5,21,201,0,none,adjacent,5_21,none/adjacent,NA
1458,4,v,1160,v,TRUE,4,10.7,7,5,22,202,0,adjacent,none,5_22,adjacent/none,dependency
1458,5,t,1072,t,TRUE,4,10.7,8,5,23,203,0,none,none,5_23,none/none,none
1458,6,n,1301,n,TRUE,4,10.7,11,5,24,204,0,none,nonadjacent,5_24,none/nonadjacent,NA
1458,7,h,1628,h,TRUE,4,10.7,12,5,25,205,1,none,none,5_25,none/none,none
1458,8,y,1053,y,TRUE,4,10.7,3,5,26,206,0,nonadjacent,none,5_26,nonadjacent/none,dependency
1458,9,f,1608,f,TRUE,4,10.7,4,5,27,207,0,none,none,5_27,none/none,none
1459,1,t,1075,t,TRUE,4,10.7,8,5,28,208,0,none,none,5_28,none/none,none
1459,2,f,2113,f,TRUE,4,10.7,4,5,29,209,0,none,none,5_29,none/none,none
1459,3,r,1275,r,TRUE,4,10.7,10,5,30,210,0,none,adjacent,5_30,none/adjacent,NA
1459,4,v,926,v,TRUE,4,10.7,7,5,31,211,0,adjacent,none,5_31,adjacent/none,dependency
1459,5,h,1253,h,TRUE,4,10.7,12,5,32,212,0,none,none,5_32,none/none,none
1459,6,n,1526,n,TRUE,4,10.7,11,5,33,213,0,none,nonadjacent,5_33,none/nonadjacent,NA
1459,7,b,1303,b,TRUE,4,10.7,2,5,34,214,1,none,none,5_34,none/none,none
1459,8,y,2181,y,TRUE,4,10.7,3,5,35,215,0,nonadjacent,none,5_35,nonadjacent/none,dependency
1460,1,b,1463,b,TRUE,4,10.7,2,5,37,217,0,none,none,5_37,none/none,none
1460,2,t,1087,t,TRUE,4,10.7,8,5,38,218,0,none,none,5_38,none/none,none
1460,3,r,2965,r,TRUE,4,10.7,10,5,39,219,0,none,adjacent,5_39,none/adjacent,NA
1460,4,v,882,v,TRUE,4,10.7,7,5,40,220,0,adjacent,none,5_40,adjacent/none,dependency
1460,5,f,1056,f,TRUE,4,10.7,4,5,41,221,0,none,none,5_41,none/none,none
1460,6,n,1018,n,TRUE,4,10.7,11,5,42,222,0,none,nonadjacent,5_42,none/nonadjacent,NA
1460,8,y,1319,y,TRUE,4,10.7,3,5,44,224,0,nonadjacent,none,5_44,nonadjacent/none,dependency
1460,9,h,1103,h,TRUE,4,10.7,12,5,45,225,0,none,none,5_45,none/none,none
1461,1,t,949,t,TRUE,4,10.7,8,6,1,226,0,none,none,6_1,none/none,none
1461,2,n,3104,n,TRUE,4,10.7,11,6,2,227,0,none,nonadjacent,6_2,none/nonadjacent,NA
1461,4,y,1143,y,TRUE,4,10.7,3,6,4,229,0,nonadjacent,none,6_4,nonadjacent/none,dependency
1461,5,b,1142,b,TRUE,4,10.7,2,6,5,230,0,none,none,6_5,none/none,none
1461,6,f,1236,f,TRUE,4,10.7,4,6,6,231,0,none,none,6_6,none/none,none
1461,7,r,1779,r,TRUE,4,10.7,10,6,7,232,0,none,adjacent,6_7,none/adjacent,NA
1461,8,v,963,v,TRUE,4,10.7,7,6,8,233,0,adjacent,none,6_8,adjacent/none,dependency
1461,9,h,1039,h,TRUE,4,10.7,12,6,9,234,0,none,none,6_9,none/none,none
1462,2,n,1017,n,TRUE,4,10.7,11,6,11,236,0,none,nonadjacent,6_11,none/nonadjacent,NA
1462,3,f,1427,f,TRUE,4,10.7,4,6,12,237,1,none,none,6_12,none/none,none
1462,4,y,1055,y,TRUE,4,10.7,3,6,13,238,0,nonadjacent,none,6_13,nonadjacent/none,dependency
1462,5,h,991,h,TRUE,4,10.7,12,6,14,239,0,none,none,6_14,none/none,none
1462,6,b,1783,b,TRUE,4,10.7,2,6,15,240,0,none,none,6_15,none/none,none
1462,7,r,1088,r,TRUE,4,10.7,10,6,16,241,0,none,adjacent,6_16,none/adjacent,NA
1462,8,v,1015,v,TRUE,4,10.7,7,6,17,242,0,adjacent,none,6_17,adjacent/none,dependency
1462,9,t,1116,t,TRUE,4,10.7,8,6,18,243,0,none,none,6_18,none/none,none
1463,1,h,1267,h,TRUE,4,10.7,12,6,19,244,0,none,none,6_19,none/none,none
1463,2,n,1174,n,TRUE,4,10.7,11,6,20,245,0,none,nonadjacent,6_20,none/nonadjacent,NA
1463,3,t,897,t,TRUE,4,10.7,8,6,21,246,1,none,none,6_21,none/none,none
1463,4,y,1020,y,TRUE,4,10.7,3,6,22,247,0,nonadjacent,none,6_22,nonadjacent/none,dependency
1463,5,f,1392,f,TRUE,4,10.7,4,6,23,248,0,none,none,6_23,none/none,none
1463,7,r,1006,r,TRUE,4,10.7,10,6,25,250,0,none,adjacent,6_25,none/adjacent,NA
1463,8,v,920,v,TRUE,4,10.7,7,6,26,251,0,adjacent,none,6_26,adjacent/none,dependency
1463,9,b,1054,b,TRUE,4,10.7,2,6,27,252,0,none,none,6_27,none/none,none
1464,1,f,1956,f,TRUE,4,10.7,4,6,28,253,0,none,none,6_28,none/none,none
1464,2,n,1542,n,TRUE,4,10.7,11,6,29,254,0,none,nonadjacent,6_29,none/nonadjacent,NA
1464,3,b,1410,b,TRUE,4,10.7,2,6,30,255,1,none,none,6_30,none/none,none
1464,4,y,1011,y,TRUE,4,10.7,3,6,31,256,0,nonadjacent,none,6_31,nonadjacent/none,dependency
1464,5,t,1191,t,TRUE,4,10.7,8,6,32,257,0,none,none,6_32,none/none,none
1464,6,h,1101,h,TRUE,4,10.7,12,6,33,258,0,none,none,6_33,none/none,none
1464,7,r,1558,r,TRUE,4,10.7,10,6,34,259,0,none,adjacent,6_34,none/adjacent,NA
1464,8,v,940,v,TRUE,4,10.7,7,6,35,260,0,adjacent,none,6_35,adjacent/none,dependency
1465,1,b,1229,b,TRUE,4,10.7,2,6,37,262,0,none,none,6_37,none/none,none
1465,2,n,1210,n,TRUE,4,10.7,11,6,38,263,0,none,nonadjacent,6_38,none/nonadjacent,NA
1465,3,h,1132,h,TRUE,4,10.7,12,6,39,264,1,none,none,6_39,none/none,none
1465,4,y,1690,y,TRUE,4,10.7,3,6,40,265,0,nonadjacent,none,6_40,nonadjacent/none,dependency
1465,6,t,982,t,TRUE,4,10.7,8,6,42,267,0,none,none,6_42,none/none,none
1465,7,r,1325,r,TRUE,4,10.7,10,6,43,268,0,none,adjacent,6_43,none/adjacent,NA
1465,8,v,1064,v,TRUE,4,10.7,7,6,44,269,0,adjacent,none,6_44,adjacent/none,dependency
1465,9,f,827,f,TRUE,4,10.7,4,6,45,270,0,none,none,6_45,none/none,none
1466,1,y,2215,y,TRUE,4,10.7,3,7,1,271,0,none,none,7_1,none/none,none
1466,2,r,1033,r,TRUE,4,10.7,10,7,2,272,0,none,adjacent,7_2,none/adjacent,NA
1466,3,n,1399,n,TRUE,4,10.7,11,7,3,273,0,adjacent,nonadjacent,7_3,adjacent/nonadjacent,dependency
1466,4,t,1062,t,TRUE,4,10.7,8,7,4,274,1,none,none,7_4,none/none,none
1466,5,v,1032,v,TRUE,4,10.7,7,7,5,275,0,nonadjacent,none,7_5,nonadjacent/none,dependency
1466,6,f,1006,f,TRUE,4,10.7,4,7,6,276,0,none,none,7_6,none/none,none
1466,7,h,2401,h,TRUE,4,10.7,12,7,7,277,0,none,none,7_7,none/none,none
1466,9,b,1093,b,TRUE,4,10.7,2,7,9,279,0,none,none,7_9,none/none,none
1467,1,v,1186,v,TRUE,4,10.7,7,7,10,280,0,none,none,7_10,none/none,none
1467,2,h,1168,h,TRUE,4,10.7,12,7,11,281,0,none,none,7_11,none/none,none
1467,3,t,1165,t,TRUE,4,10.7,8,7,12,282,0,none,none,7_12,none/none,none
1467,4,b,1197,b,TRUE,4,10.7,2,7,13,283,0,none,none,7_13,none/none,none
1467,5,r,1030,r,TRUE,4,10.7,10,7,14,284,0,none,adjacent,7_14,none/adjacent,NA
1467,6,n,1299,n,TRUE,4,10.7,11,7,15,285,0,adjacent,nonadjacent,7_15,adjacent/nonadjacent,dependency
1467,8,f,203,n,FALSE,4,10.7,4,7,17,287,0,nonadjacent,none,7_17,nonadjacent/none,dependency
1467,9,y,1187,y,TRUE,4,10.7,3,7,18,288,0,none,none,7_18,none/none,none
1468,1,r,1133,r,TRUE,4,10.7,10,7,19,289,0,none,adjacent,7_19,none/adjacent,NA
1468,2,t,1140,t,TRUE,4,10.7,8,7,20,290,0,adjacent,none,7_20,adjacent/none,dependency
1468,3,y,1148,y,TRUE,4,10.7,3,7,21,291,0,none,none,7_21,none/none,none
1468,4,v,1195,v,TRUE,4,10.7,7,7,22,292,0,none,none,7_22,none/none,none
1468,5,n,1075,n,TRUE,4,10.7,11,7,23,293,0,none,nonadjacent,7_23,none/nonadjacent,NA
1468,7,f,1237,f,TRUE,4,10.7,4,7,25,295,0,nonadjacent,none,7_25,nonadjacent/none,dependency
1468,8,b,1146,b,TRUE,4,10.7,2,7,26,296,0,none,none,7_26,none/none,none
1468,9,h,1130,h,TRUE,4,10.7,12,7,27,297,0,none,none,7_27,none/none,none
1469,1,f,5349,f,TRUE,4,10.7,4,7,28,298,0,none,none,7_28,none/none,none
1469,3,b,1455,b,TRUE,4,10.7,2,7,30,300,0,none,none,7_30,none/none,none
1469,4,h,1071,h,TRUE,4,10.7,12,7,31,301,0,none,none,7_31,none/none,none
1469,5,t,1131,t,TRUE,4,10.7,8,7,32,302,0,none,none,7_32,none/none,none
1469,6,y,1129,y,TRUE,4,10.7,3,7,33,303,0,none,none,7_33,none/none,none
1469,7,v,1102,v,TRUE,4,10.7,7,7,34,304,0,none,none,7_34,none/none,none
1469,8,n,1037,n,TRUE,4,10.7,11,7,35,305,0,none,nonadjacent,7_35,none/nonadjacent,NA
1469,9,r,1109,r,TRUE,4,10.7,10,7,36,306,1,none,adjacent,7_36,none/adjacent,NA
1470,2,n,1107,n,TRUE,4,10.7,11,7,38,308,0,none,nonadjacent,7_38,none/nonadjacent,NA
1470,3,v,1718,v,TRUE,4,10.7,7,7,39,309,1,none,none,7_39,none/none,none
1470,4,r,1036,r,TRUE,4,10.7,10,7,40,310,0,nonadjacent,adjacent,7_40,nonadjacent/adjacent,dependency
1470,5,h,1180,h,TRUE,4,10.7,12,7,41,311,0,adjacent,none,7_41,adjacent/none,dependency
1470,6,b,1120,b,TRUE,4,10.7,2,7,42,312,0,none,none,7_42,none/none,none
1470,7,t,996,t,TRUE,4,10.7,8,7,43,313,0,none,none,7_43,none/none,none
1470,8,y,1093,y,TRUE,4,10.7,3,7,44,314,0,none,none,7_44,none/none,none
1470,9,f,1325,f,TRUE,4,10.7,4,7,45,315,0,none,none,7_45,none/none,none
771,1,f,807,f,TRUE,5,10.3,4,1,1,1,0,none,none,1_1,none/none,none
771,2,n,916,n,TRUE,5,10.3,11,1,2,2,0,none,nonadjacent,1_2,none/nonadjacent,NA
771,3,t,839,t,TRUE,5,10.3,8,1,3,3,1,none,none,1_3,none/none,none
771,4,v,824,v,TRUE,5,10.3,7,1,4,4,0,nonadjacent,none,1_4,nonadjacent/none,dependency
771,5,h,838,h,TRUE,5,10.3,12,1,5,5,0,none,none,1_5,none/none,none
771,6,b,847,b,TRUE,5,10.3,2,1,6,6,0,none,none,1_6,none/none,none
771,7,r,874,r,TRUE,5,10.3,10,1,7,7,0,none,adjacent,1_7,none/adjacent,NA
771,8,y,1047,y,TRUE,5,10.3,3,1,8,8,0,adjacent,none,1_8,adjacent/none,dependency
772,1,t,660,t,TRUE,5,10.3,8,1,10,10,0,none,none,1_10,none/none,none
772,2,n,867,n,TRUE,5,10.3,11,1,11,11,0,none,nonadjacent,1_11,none/nonadjacent,NA
772,3,b,814,b,TRUE,5,10.3,2,1,12,12,1,none,none,1_12,none/none,none
772,4,v,812,v,TRUE,5,10.3,7,1,13,13,0,nonadjacent,none,1_13,nonadjacent/none,dependency
772,5,f,977,f,TRUE,5,10.3,4,1,14,14,0,none,none,1_14,none/none,none
772,7,r,856,r,TRUE,5,10.3,10,1,16,16,0,none,adjacent,1_16,none/adjacent,NA
772,8,y,810,y,TRUE,5,10.3,3,1,17,17,0,adjacent,none,1_17,adjacent/none,dependency
772,9,h,1238,h,TRUE,5,10.3,12,1,18,18,0,none,none,1_18,none/none,none
773,1,b,889,b,TRUE,5,10.3,2,1,19,19,0,none,none,1_19,none/none,none
773,2,n,785,n,TRUE,5,10.3,11,1,20,20,0,none,nonadjacent,1_20,none/nonadjacent,NA
773,4,v,738,v,TRUE,5,10.3,7,1,22,22,0,nonadjacent,none,1_22,nonadjacent/none,dependency
773,5,t,835,t,TRUE,5,10.3,8,1,23,23,0,none,none,1_23,none/none,none
773,6,h,947,h,TRUE,5,10.3,12,1,24,24,0,none,none,1_24,none/none,none
773,7,r,821,r,TRUE,5,10.3,10,1,25,25,0,none,adjacent,1_25,none/adjacent,NA
773,8,y,883,y,TRUE,5,10.3,3,1,26,26,0,adjacent,none,1_26,adjacent/none,dependency
773,9,f,834,f,TRUE,5,10.3,4,1,27,27,0,none,none,1_27,none/none,none
774,2,n,864,n,TRUE,5,10.3,11,1,29,29,0,none,nonadjacent,1_29,none/nonadjacent,NA
774,3,h,901,h,TRUE,5,10.3,12,1,30,30,1,none,none,1_30,none/none,none
774,4,v,799,v,TRUE,5,10.3,7,1,31,31,0,nonadjacent,none,1_31,nonadjacent/none,dependency
774,5,b,802,b,TRUE,5,10.3,2,1,32,32,0,none,none,1_32,none/none,none
774,6,f,838,f,TRUE,5,10.3,4,1,33,33,0,none,none,1_33,none/none,none
774,7,r,814,r,TRUE,5,10.3,10,1,34,34,0,none,adjacent,1_34,none/adjacent,NA
774,8,y,811,y,TRUE,5,10.3,3,1,35,35,0,adjacent,none,1_35,adjacent/none,dependency
774,9,t,1161,t,TRUE,5,10.3,8,1,36,36,0,none,none,1_36,none/none,none
775,1,h,1287,h,TRUE,5,10.3,12,1,37,37,0,none,none,1_37,none/none,none
775,2,n,924,n,TRUE,5,10.3,11,1,38,38,0,none,nonadjacent,1_38,none/nonadjacent,NA
775,3,f,1114,f,TRUE,5,10.3,4,1,39,39,1,none,none,1_39,none/none,none
775,4,v,893,v,TRUE,5,10.3,7,1,40,40,0,nonadjacent,none,1_40,nonadjacent/none,dependency
775,6,t,952,t,TRUE,5,10.3,8,1,42,42,0,none,none,1_42,none/none,none
775,7,r,1731,r,TRUE,5,10.3,10,1,43,43,0,none,adjacent,1_43,none/adjacent,NA
775,8,y,1121,y,TRUE,5,10.3,3,1,44,44,0,adjacent,none,1_44,adjacent/none,dependency
775,9,b,998,b,TRUE,5,10.3,2,1,45,45,0,none,none,1_45,none/none,none
776,2,t,785,t,TRUE,5,10.3,8,2,2,47,0,none,none,2_2,none/none,none
776,3,r,1138,r,TRUE,5,10.3,10,2,3,48,0,none,adjacent,2_3,none/adjacent,NA
776,4,y,904,y,TRUE,5,10.3,3,2,4,49,0,adjacent,none,2_4,adjacent/none,dependency
776,5,h,842,h,TRUE,5,10.3,12,2,5,50,0,none,none,2_5,none/none,none
776,6,n,803,n,TRUE,5,10.3,11,2,6,51,0,none,nonadjacent,2_6,none/nonadjacent,NA
776,7,b,857,b,TRUE,5,10.3,2,2,7,52,1,none,none,2_7,none/none,none
776,8,v,923,v,TRUE,5,10.3,7,2,8,53,0,nonadjacent,none,2_8,nonadjacent/none,dependency
776,9,f,1137,f,TRUE,5,10.3,4,2,9,54,0,none,none,2_9,none/none,none
777,1,t,748,t,TRUE,5,10.3,8,2,10,55,0,none,none,2_10,none/none,none
777,2,h,758,h,TRUE,5,10.3,12,2,11,56,0,none,none,2_11,none/none,none
777,3,r,722,r,TRUE,5,10.3,10,2,12,57,0,none,adjacent,2_12,none/adjacent,NA
777,4,y,691,y,TRUE,5,10.3,3,2,13,58,0,adjacent,none,2_13,adjacent/none,dependency
777,5,b,1003,b,TRUE,5,10.3,2,2,14,59,0,none,none,2_14,none/none,none
777,6,n,886,n,TRUE,5,10.3,11,2,15,60,0,none,nonadjacent,2_15,none/nonadjacent,NA
777,7,f,1007,f,TRUE,5,10.3,4,2,16,61,1,none,none,2_16,none/none,none
777,8,v,792,v,TRUE,5,10.3,7,2,17,62,0,nonadjacent,none,2_17,nonadjacent/none,dependency
778,1,b,1134,b,TRUE,5,10.3,2,2,19,64,0,none,none,2_19,none/none,none
778,2,f,821,f,TRUE,5,10.3,4,2,20,65,0,none,none,2_20,none/none,none
778,3,r,837,r,TRUE,5,10.3,10,2,21,66,0,none,adjacent,2_21,none/adjacent,NA
778,4,y,804,y,TRUE,5,10.3,3,2,22,67,0,adjacent,none,2_22,adjacent/none,dependency
778,6,n,897,n,TRUE,5,10.3,11,2,24,69,0,none,nonadjacent,2_24,none/nonadjacent,NA
778,7,t,794,t,TRUE,5,10.3,8,2,25,70,1,none,none,2_25,none/none,none
778,8,v,836,v,TRUE,5,10.3,7,2,26,71,0,nonadjacent,none,2_26,nonadjacent/none,dependency
778,9,h,933,h,TRUE,5,10.3,12,2,27,72,0,none,none,2_27,none/none,none
779,1,f,913,f,TRUE,5,10.3,4,2,28,73,0,none,none,2_28,none/none,none
779,3,r,740,r,TRUE,5,10.3,10,2,30,75,0,none,adjacent,2_30,none/adjacent,NA
779,4,y,783,y,TRUE,5,10.3,3,2,31,76,0,adjacent,none,2_31,adjacent/none,dependency
779,5,t,848,t,TRUE,5,10.3,8,2,32,77,0,none,none,2_32,none/none,none
779,6,n,849,n,TRUE,5,10.3,11,2,33,78,0,none,nonadjacent,2_33,none/nonadjacent,NA
779,7,h,819,h,TRUE,5,10.3,12,2,34,79,1,none,none,2_34,none/none,none
779,8,v,841,v,TRUE,5,10.3,7,2,35,80,0,nonadjacent,none,2_35,nonadjacent/none,dependency
779,9,b,884,b,TRUE,5,10.3,2,2,36,81,0,none,none,2_36,none/none,none
780,1,h,672,h,TRUE,5,10.3,12,2,37,82,0,none,none,2_37,none/none,none
780,2,b,1103,b,TRUE,5,10.3,2,2,38,83,0,none,none,2_38,none/none,none
780,3,r,679,r,TRUE,5,10.3,10,2,39,84,0,none,adjacent,2_39,none/adjacent,NA
780,4,y,801,y,TRUE,5,10.3,3,2,40,85,0,adjacent,none,2_40,adjacent/none,dependency
780,5,f,706,f,TRUE,5,10.3,4,2,41,86,0,none,none,2_41,none/none,none
780,6,n,872,n,TRUE,5,10.3,11,2,42,87,0,none,nonadjacent,2_42,none/nonadjacent,NA
780,8,v,660,v,TRUE,5,10.3,7,2,44,89,0,nonadjacent,none,2_44,nonadjacent/none,dependency
780,9,t,1034,t,TRUE,5,10.3,8,2,45,90,0,none,none,2_45,none/none,none
781,1,h,694,h,TRUE,5,10.3,12,3,1,91,0,none,none,3_1,none/none,none
781,2,n,744,n,TRUE,5,10.3,11,3,2,92,0,none,nonadjacent,3_2,none/nonadjacent,NA
781,3,b,641,b,TRUE,5,10.3,2,3,3,93,1,none,none,3_3,none/none,none
781,4,v,709,v,TRUE,5,10.3,7,3,4,94,0,nonadjacent,none,3_4,nonadjacent/none,dependency
781,5,f,843,f,TRUE,5,10.3,4,3,5,95,0,none,none,3_5,none/none,none
781,7,r,909,r,TRUE,5,10.3,10,3,7,97,0,none,adjacent,3_7,none/adjacent,NA
781,8,y,920,y,TRUE,5,10.3,3,3,8,98,0,adjacent,none,3_8,adjacent/none,dependency
781,9,t,566,t,TRUE,5,10.3,8,3,9,99,0,none,none,3_9,none/none,none
782,1,f,977,f,TRUE,5,10.3,4,3,10,100,0,none,none,3_10,none/none,none
782,2,n,847,n,TRUE,5,10.3,11,3,11,101,0,none,nonadjacent,3_11,none/nonadjacent,NA
782,4,v,656,v,TRUE,5,10.3,7,3,13,103,0,nonadjacent,none,3_13,nonadjacent/none,dependency
782,5,t,702,t,TRUE,5,10.3,8,3,14,104,0,none,none,3_14,none/none,none
782,6,h,747,h,TRUE,5,10.3,12,3,15,105,0,none,none,3_15,none/none,none
782,7,r,717,r,TRUE,5,10.3,10,3,16,106,0,none,adjacent,3_16,none/adjacent,NA
782,8,y,772,y,TRUE,5,10.3,3,3,17,107,0,adjacent,none,3_17,adjacent/none,dependency
782,9,b,857,b,TRUE,5,10.3,2,3,18,108,0,none,none,3_18,none/none,none
783,1,b,819,b,TRUE,5,10.3,2,3,19,109,0,none,none,3_19,none/none,none
783,2,n,697,n,TRUE,5,10.3,11,3,20,110,0,none,nonadjacent,3_20,none/nonadjacent,NA
783,3,f,806,f,TRUE,5,10.3,4,3,21,111,1,none,none,3_21,none/none,none
783,4,v,792,v,TRUE,5,10.3,7,3,22,112,0,nonadjacent,none,3_22,nonadjacent/none,dependency
783,6,t,778,t,TRUE,5,10.3,8,3,24,114,0,none,none,3_24,none/none,none
783,7,r,578,r,TRUE,5,10.3,10,3,25,115,0,none,adjacent,3_25,none/adjacent,NA
783,8,y,811,y,TRUE,5,10.3,3,3,26,116,0,adjacent,none,3_26,adjacent/none,dependency
783,9,h,744,h,TRUE,5,10.3,12,3,27,117,0,none,none,3_27,none/none,none
784,1,t,663,t,TRUE,5,10.3,8,3,28,118,0,none,none,3_28,none/none,none
784,2,n,662,n,TRUE,5,10.3,11,3,29,119,0,none,nonadjacent,3_29,none/nonadjacent,NA
784,3,h,819,h,TRUE,5,10.3,12,3,30,120,1,none,none,3_30,none/none,none
784,4,v,722,v,TRUE,5,10.3,7,3,31,121,0,nonadjacent,none,3_31,nonadjacent/none,dependency
784,5,b,816,b,TRUE,5,10.3,2,3,32,122,0,none,none,3_32,none/none,none
784,6,f,781,f,TRUE,5,10.3,4,3,33,123,0,none,none,3_33,none/none,none
784,7,r,814,r,TRUE,5,10.3,10,3,34,124,0,none,adjacent,3_34,none/adjacent,NA
784,8,y,956,y,TRUE,5,10.3,3,3,35,125,0,adjacent,none,3_35,adjacent/none,dependency
785,2,n,730,n,TRUE,5,10.3,11,3,38,128,0,none,nonadjacent,3_38,none/nonadjacent,NA
785,3,t,890,t,TRUE,5,10.3,8,3,39,129,1,none,none,3_39,none/none,none
785,4,v,724,v,TRUE,5,10.3,7,3,40,130,0,nonadjacent,none,3_40,nonadjacent/none,dependency
785,5,h,1322,f,FALSE,5,10.3,12,3,41,131,0,none,none,3_41,none/none,none
785,6,b,1454,b,TRUE,5,10.3,2,3,42,132,0,none,none,3_42,none/none,none
785,7,r,1012,r,TRUE,5,10.3,10,3,43,133,0,none,adjacent,3_43,none/adjacent,NA
785,8,y,838,y,TRUE,5,10.3,3,3,44,134,0,adjacent,none,3_44,adjacent/none,dependency
785,9,f,831,f,TRUE,5,10.3,4,3,45,135,0,none,none,3_45,none/none,none
786,1,f,851,f,TRUE,5,10.3,4,4,1,136,0,none,none,4_1,none/none,none
786,2,b,1191,b,TRUE,5,10.3,2,4,2,137,0,none,none,4_2,none/none,none
786,3,r,837,r,TRUE,5,10.3,10,4,3,138,0,none,adjacent,4_3,none/adjacent,NA
786,4,y,959,y,TRUE,5,10.3,3,4,4,139,0,adjacent,none,4_4,adjacent/none,dependency
786,5,t,792,t,TRUE,5,10.3,8,4,5,140,0,none,none,4_5,none/none,none
786,6,n,756,n,TRUE,5,10.3,11,4,6,141,0,none,nonadjacent,4_6,none/nonadjacent,NA
786,7,h,750,h,TRUE,5,10.3,12,4,7,142,1,none,none,4_7,none/none,none
786,8,v,1059,v,TRUE,5,10.3,7,4,8,143,0,nonadjacent,none,4_8,nonadjacent/none,dependency
787,1,h,651,h,TRUE,5,10.3,12,4,10,145,0,none,none,4_10,none/none,none
787,2,t,760,t,TRUE,5,10.3,8,4,11,146,0,none,none,4_11,none/none,none
787,3,r,771,r,TRUE,5,10.3,10,4,12,147,0,none,adjacent,4_12,none/adjacent,NA
787,4,y,1010,y,TRUE,5,10.3,3,4,13,148,0,adjacent,none,4_13,adjacent/none,dependency
787,5,f,814,f,TRUE,5,10.3,4,4,14,149,0,none,none,4_14,none/none,none
787,6,n,825,n,TRUE,5,10.3,11,4,15,150,0,none,nonadjacent,4_15,none/nonadjacent,NA
787,8,v,981,v,TRUE,5,10.3,7,4,17,152,0,nonadjacent,none,4_17,nonadjacent/none,dependency
787,9,b,365,b,TRUE,5,10.3,2,4,18,153,0,none,none,4_18,none/none,none
788,1,b,850,b,TRUE,5,10.3,2,4,19,154,0,none,none,4_19,none/none,none
788,2,h,781,h,TRUE,5,10.3,12,4,20,155,0,none,none,4_20,none/none,none
788,3,r,717,r,TRUE,5,10.3,10,4,21,156,0,none,adjacent,4_21,none/adjacent,NA
788,4,y,820,y,TRUE,5,10.3,3,4,22,157,0,adjacent,none,4_22,adjacent/none,dependency
788,6,n,839,n,TRUE,5,10.3,11,4,24,159,0,none,nonadjacent,4_24,none/nonadjacent,NA
788,7,t,792,t,TRUE,5,10.3,8,4,25,160,1,none,none,4_25,none/none,none
788,8,v,833,v,TRUE,5,10.3,7,4,26,161,0,nonadjacent,none,4_26,nonadjacent/none,dependency
788,9,f,746,f,TRUE,5,10.3,4,4,27,162,0,none,none,4_27,none/none,none
789,1,t,783,t,TRUE,5,10.3,8,4,28,163,0,none,none,4_28,none/none,none
789,3,r,792,r,TRUE,5,10.3,10,4,30,165,0,none,adjacent,4_30,none/adjacent,NA
789,4,y,771,y,TRUE,5,10.3,3,4,31,166,0,adjacent,none,4_31,adjacent/none,dependency
789,5,b,770,b,TRUE,5,10.3,2,4,32,167,0,none,none,4_32,none/none,none
789,6,n,824,n,TRUE,5,10.3,11,4,33,168,0,none,nonadjacent,4_33,none/nonadjacent,NA
789,7,f,838,f,TRUE,5,10.3,4,4,34,169,1,none,none,4_34,none/none,none
789,8,v,935,v,TRUE,5,10.3,7,4,35,170,0,nonadjacent,none,4_35,nonadjacent/none,dependency
789,9,h,807,h,TRUE,5,10.3,12,4,36,171,0,none,none,4_36,none/none,none
790,2,f,788,f,TRUE,5,10.3,4,4,38,173,0,none,none,4_38,none/none,none
790,3,r,910,r,TRUE,5,10.3,10,4,39,174,0,none,adjacent,4_39,none/adjacent,NA
790,4,y,809,y,TRUE,5,10.3,3,4,40,175,0,adjacent,none,4_40,adjacent/none,dependency
790,5,h,950,h,TRUE,5,10.3,12,4,41,176,0,none,none,4_41,none/none,none
790,6,n,696,n,TRUE,5,10.3,11,4,42,177,0,none,nonadjacent,4_42,none/nonadjacent,NA
790,7,b,667,b,TRUE,5,10.3,2,4,43,178,1,none,none,4_43,none/none,none
790,8,v,706,v,TRUE,5,10.3,7,4,44,179,0,nonadjacent,none,4_44,nonadjacent/none,dependency
790,9,t,702,t,TRUE,5,10.3,8,4,45,180,0,none,none,4_45,none/none,none
791,2,n,678,n,TRUE,5,10.3,11,5,2,182,0,none,nonadjacent,5_2,none/nonadjacent,NA
791,3,f,758,f,TRUE,5,10.3,4,5,3,183,1,none,none,5_3,none/none,none
791,4,v,676,v,TRUE,5,10.3,7,5,4,184,0,nonadjacent,none,5_4,nonadjacent/none,dependency
791,5,h,700,h,TRUE,5,10.3,12,5,5,185,0,none,none,5_5,none/none,none
791,6,b,928,b,TRUE,5,10.3,2,5,6,186,0,none,none,5_6,none/none,none
791,7,r,1006,r,TRUE,5,10.3,10,5,7,187,0,none,adjacent,5_7,none/adjacent,NA
791,8,y,905,y,TRUE,5,10.3,3,5,8,188,0,adjacent,none,5_8,adjacent/none,dependency
791,9,t,907,t,TRUE,5,10.3,8,5,9,189,0,none,none,5_9,none/none,none
792,1,b,1636,b,TRUE,5,10.3,2,5,10,190,0,none,none,5_10,none/none,none
792,2,n,814,n,TRUE,5,10.3,11,5,11,191,0,none,nonadjacent,5_11,none/nonadjacent,NA
792,3,h,771,h,TRUE,5,10.3,12,5,12,192,1,none,none,5_12,none/none,none
792,4,v,826,v,TRUE,5,10.3,7,5,13,193,0,nonadjacent,none,5_13,nonadjacent/none,dependency
792,6,t,783,t,TRUE,5,10.3,8,5,15,195,0,none,none,5_15,none/none,none
792,7,r,720,r,TRUE,5,10.3,10,5,16,196,0,none,adjacent,5_16,none/adjacent,NA
792,8,y,805,y,TRUE,5,10.3,3,5,17,197,0,adjacent,none,5_17,adjacent/none,dependency
792,9,f,794,f,TRUE,5,10.3,4,5,18,198,0,none,none,5_18,none/none,none
793,1,h,1134,h,TRUE,5,10.3,12,5,19,199,0,none,none,5_19,none/none,none
793,2,n,908,n,TRUE,5,10.3,11,5,20,200,0,none,nonadjacent,5_20,none/nonadjacent,NA
793,3,t,2064,t,TRUE,5,10.3,8,5,21,201,1,none,none,5_21,none/none,none
793,4,v,699,v,TRUE,5,10.3,7,5,22,202,0,nonadjacent,none,5_22,nonadjacent/none,dependency
793,5,f,1776,f,TRUE,5,10.3,4,5,23,203,0,none,none,5_23,none/none,none
793,7,r,769,r,TRUE,5,10.3,10,5,25,205,0,none,adjacent,5_25,none/adjacent,NA
793,8,y,719,y,TRUE,5,10.3,3,5,26,206,0,adjacent,none,5_26,adjacent/none,dependency
793,9,b,757,b,TRUE,5,10.3,2,5,27,207,0,none,none,5_27,none/none,none
794,1,f,1496,f,TRUE,5,10.3,4,5,28,208,0,none,none,5_28,none/none,none
794,2,n,806,n,TRUE,5,10.3,11,5,29,209,0,none,nonadjacent,5_29,none/nonadjacent,NA
794,3,b,776,b,TRUE,5,10.3,2,5,30,210,1,none,none,5_30,none/none,none
794,4,v,1352,v,TRUE,5,10.3,7,5,31,211,0,nonadjacent,none,5_31,nonadjacent/none,dependency
794,5,t,719,t,TRUE,5,10.3,8,5,32,212,0,none,none,5_32,none/none,none
794,6,h,1310,h,TRUE,5,10.3,12,5,33,213,0,none,none,5_33,none/none,none
794,7,r,774,r,TRUE,5,10.3,10,5,34,214,0,none,adjacent,5_34,none/adjacent,NA
794,8,y,845,y,TRUE,5,10.3,3,5,35,215,0,adjacent,none,5_35,adjacent/none,dependency
795,1,t,920,t,TRUE,5,10.3,8,5,37,217,0,none,none,5_37,none/none,none
795,2,n,774,n,TRUE,5,10.3,11,5,38,218,0,none,nonadjacent,5_38,none/nonadjacent,NA
795,4,v,758,v,TRUE,5,10.3,7,5,40,220,0,nonadjacent,none,5_40,nonadjacent/none,dependency
795,5,b,730,b,TRUE,5,10.3,2,5,41,221,0,none,none,5_41,none/none,none
795,6,f,884,f,TRUE,5,10.3,4,5,42,222,0,none,none,5_42,none/none,none
795,7,r,787,r,TRUE,5,10.3,10,5,43,223,0,none,adjacent,5_43,none/adjacent,NA
